subj	date	exp	trial	FaceLeft	FaceCenter	FaceRight	TestLeft	TestCenter	TestRight	CorrectResp1	CorrectResp2	CorrectResp3	Fixation1	Fixation2	Fixation3	Fixation4	Running	TrialList.Cycle	TrialList.Sample	TestLeft.ACC	TestLeft.RT	TestLeft.RESP	TestLeft.CRESP	TestCenter.ACC	TestCenter.RT	TestCenter.RESP	TestCenter.CRESP	TestRight.ACC	TestRight.RT	TestRight.RESP	TestRight.CRESP
102	20111001	AUS_CMFT	1	 LearnLA004	 ._LearnFA004	 LearnRA004	 ._LearnLA004_T1	 ._LearnFA004_T3	 LearnRA004_T3	 2	 4	 4	 15000	 7500	 3000	 1500	 TrialList	 1	 1	 1	 1729	 2	 2	 1	 2528	 4	 4	 1	 1868	 4	 4
102	20111001	AUS_CMFT	2	 LearnLA011	 ._LearnFA011	 ._LearnRA011	 ._LearnLA011_T2	 ._LearnFA011_T3	 LearnRA011_T3	 3	 4	 4	 1500	 7500	 6000	 4500	 TrialList	 1	 2	 1	 2179	 3	 3	 1	 2826	 4	 4	 1	 2941	 4	 4
102	20111001	AUS_CMFT	3	 LearnLA022	 ._LearnFA022	 LearnRA022	 LearnLA022_T3	 ._LearnFA022_T1	 ._LearnRA022_T1	 4	 2	 2	 7500	 4500	 7500	 7500	 TrialList	 1	 3	 1	 1811	 4	 4	 1	 2102	 2	 2	 0	 1951	 4	 2
102	20111001	AUS_CMFT	4	 LearnLA040	 ._LearnFA040	 ._LearnRA040	 LearnLA040_T2	 ._LearnFA040_T2	 LearnRA040_T1	 3	 3	 2	 7500	 4500	 1500	 7500	 TrialList	 1	 4	 1	 2605	 3	 3	 1	 1825	 3	 3	 0	 0	 	 
102	20111001	AUS_CMFT	5	 LearnLA049	 ._LearnFA049	 LearnRA049	 ._LearnLA049_T3	 ._LearnFA049_T1	 ._LearnRA049_T3	 4	 2	 4	 1500	 7500	 6000	 1500	 TrialList	 1	 5	 1	 1955	 4	 4	 1	 2209	 2	 2	 1	 2733	 4	 4
102	20111001	AUS_CMFT	6	 LearnLA076	 LearnFA076	 LearnRA076	 LearnLA076_T1	 LearnFA076_T3	 LearnRA076_T1	 2	 4	 2	 7500	 7500	 1500	 4500	 TrialList	 1	 6	 1	 1898	 2	 2	 1	 2399	 4	 4	 1	 2090	 2	 2
103	20110504	AUS_CMFT	1	 LearnLA004	 ._LearnFA004	 LearnRA004	 ._LearnLA004_T1	 ._LearnFA004_T3	 LearnRA004_T3	 2	 4	 4	 15000	 7500	 3000	 1500	 TrialList	 1	 1	 1	 3591	 2	 2	 1	 4585	 4	 4	 1	 2152	 4	 4
103	20110504	AUS_CMFT	2	 LearnLA011	 ._LearnFA011	 ._LearnRA011	 ._LearnLA011_T2	 ._LearnFA011_T3	 LearnRA011_T3	 3	 4	 4	 1500	 7500	 6000	 4500	 TrialList	 1	 2	 1	 3095	 3	 3	 1	 3097	 4	 4	 1	 3026	 4	 4
103	20110504	AUS_CMFT	3	 LearnLA022	 ._LearnFA022	 LearnRA022	 LearnLA022_T3	 ._LearnFA022_T1	 ._LearnRA022_T1	 4	 2	 2	 7500	 4500	 7500	 7500	 TrialList	 1	 3	 1	 1953	 4	 4	 1	 2756	 2	 2	 0	 0	 	 
103	20110504	AUS_CMFT	4	 LearnLA040	 ._LearnFA040	 ._LearnRA040	 LearnLA040_T2	 ._LearnFA040_T2	 LearnRA040_T1	 3	 3	 2	 7500	 4500	 1500	 7500	 TrialList	 1	 4	 1	 3577	 3	 3	 1	 3719	 3	 3	 1	 3237	 2	 2
103	20110504	AUS_CMFT	5	 LearnLA049	 ._LearnFA049	 LearnRA049	 ._LearnLA049_T3	 ._LearnFA049_T1	 ._LearnRA049_T3	 4	 2	 4	 1500	 7500	 6000	 1500	 TrialList	 1	 5	 1	 2433	 4	 4	 1	 1774	 2	 2	 1	 2483	 4	 4
103	20110504	AUS_CMFT	6	 LearnLA076	 LearnFA076	 LearnRA076	 LearnLA076_T1	 LearnFA076_T3	 LearnRA076_T1	 2	 4	 2	 7500	 7500	 1500	 4500	 TrialList	 1	 6	 1	 2440	 2	 2	 0	 0	 	 4	 1	 2244	 2	 2
104	20110504	AUS_CMFT	1	 LearnLA004	 ._LearnFA004	 LearnRA004	 ._LearnLA004_T1	 ._LearnFA004_T3	 LearnRA004_T3	 2	 4	 4	 15000	 7500	 3000	 1500	 TrialList	 1	 1	 1	 1295	 2	 2	 1	 1059	 4	 4	 1	 1183	 4	 4
104	20110504	AUS_CMFT	2	 LearnLA011	 ._LearnFA011	 ._LearnRA011	 ._LearnLA011_T2	 ._LearnFA011_T3	 LearnRA011_T3	 3	 4	 4	 1500	 7500	 6000	 4500	 TrialList	 1	 2	 1	 2047	 3	 3	 0	 2046	 2	 4	 1	 1916	 4	 4
104	20110504	AUS_CMFT	3	 LearnLA022	 ._LearnFA022	 LearnRA022	 LearnLA022_T3	 ._LearnFA022_T1	 ._LearnRA022_T1	 4	 2	 2	 7500	 4500	 7500	 7500	 TrialList	 1	 3	 0	 2549	 2	 4	 1	 2718	 2	 2	 1	 3017	 2	 2
104	20110504	AUS_CMFT	4	 LearnLA040	 ._LearnFA040	 ._LearnRA040	 LearnLA040_T2	 ._LearnFA040_T2	 LearnRA040_T1	 3	 3	 2	 7500	 4500	 1500	 7500	 TrialList	 1	 4	 1	 1294	 3	 3	 1	 892	 3	 3	 1	 1424	 2	 2
104	20110504	AUS_CMFT	5	 LearnLA049	 ._LearnFA049	 LearnRA049	 ._LearnLA049_T3	 ._LearnFA049_T1	 ._LearnRA049_T3	 4	 2	 4	 1500	 7500	 6000	 1500	 TrialList	 1	 5	 1	 1835	 4	 4	 0	 2200	 3	 2	 0	 2553	 3	 4
104	20110504	AUS_CMFT	6	 LearnLA076	 LearnFA076	 LearnRA076	 LearnLA076_T1	 LearnFA076_T3	 LearnRA076_T1	 2	 4	 2	 7500	 7500	 1500	 4500	 TrialList	 1	 6	 0	 4950	 3	 2	 1	 1963	 4	 4	 1	 3946	 2	 2
105	20110629	AUS_CMFT	1	 LearnLA004	 ._LearnFA004	 LearnRA004	 ._LearnLA004_T1	 ._LearnFA004_T3	 LearnRA004_T3	 2	 4	 4	 15000	 7500	 3000	 1500	 TrialList	 1	 1	 1	 2883	 2	 2	 1	 1873	 4	 4	 1	 2305	 4	 4
105	20110629	AUS_CMFT	2	 LearnLA011	 ._LearnFA011	 ._LearnRA011	 ._LearnLA011_T2	 ._LearnFA011_T3	 LearnRA011_T3	 3	 4	 4	 1500	 7500	 6000	 4500	 TrialList	 1	 2	 1	 3502	 3	 3	 1	 3435	 4	 4	 1	 2936	 4	 4
105	20110629	AUS_CMFT	3	 LearnLA022	 ._LearnFA022	 LearnRA022	 LearnLA022_T3	 ._LearnFA022_T1	 ._LearnRA022_T1	 4	 2	 2	 7500	 4500	 7500	 7500	 TrialList	 1	 3	 1	 2154	 4	 4	 1	 3435	 2	 2	 1	 2435	 2	 2
105	20110629	AUS_CMFT	4	 LearnLA040	 ._LearnFA040	 ._LearnRA040	 LearnLA040_T2	 ._LearnFA040_T2	 LearnRA040_T1	 3	 3	 2	 7500	 4500	 1500	 7500	 TrialList	 1	 4	 1	 3855	 3	 3	 1	 2837	 3	 3	 0	 0	 	 
105	20110629	AUS_CMFT	5	 LearnLA049	 ._LearnFA049	 LearnRA049	 ._LearnLA049_T3	 ._LearnFA049_T1	 ._LearnRA049_T3	 4	 2	 4	 1500	 7500	 6000	 1500	 TrialList	 1	 5	 1	 2127	 4	 4	 1	 3056	 2	 2	 1	 2688	 4	 4
105	20110629	AUS_CMFT	6	 LearnLA076	 LearnFA076	 LearnRA076	 LearnLA076_T1	 LearnFA076_T3	 LearnRA076_T1	 2	 4	 2	 7500	 7500	 1500	 4500	 TrialList	 1	 6	 1	 3496	 2	 2	 1	 2228	 4	 4	 0	 3721	 3	 2
109	20110418	AUS_CMFT	1	 LearnLA004	 ._LearnFA004	 LearnRA004	 ._LearnLA004_T1	 ._LearnFA004_T3	 LearnRA004_T3	 2	 4	 4	 15000	 7500	 3000	 1500	 TrialList	 1	 1	 1	 2008	 2	 2	 1	 1750	 4	 4	 1	 2035	 4	 4
109	20110418	AUS_CMFT	2	 LearnLA011	 ._LearnFA011	 ._LearnRA011	 ._LearnLA011_T2	 ._LearnFA011_T3	 LearnRA011_T3	 3	 4	 4	 1500	 7500	 6000	 4500	 TrialList	 1	 2	 1	 1179	 3	 3	 1	 1552	 4	 4	 1	 2720	 4	 4
109	20110418	AUS_CMFT	3	 LearnLA022	 ._LearnFA022	 LearnRA022	 LearnLA022_T3	 ._LearnFA022_T1	 ._LearnRA022_T1	 4	 2	 2	 7500	 4500	 7500	 7500	 TrialList	 1	 3	 1	 1547	 4	 4	 1	 2609	 2	 2	 1	 1827	 2	 2
109	20110418	AUS_CMFT	4	 LearnLA040	 ._LearnFA040	 ._LearnRA040	 LearnLA040_T2	 ._LearnFA040_T2	 LearnRA040_T1	 3	 3	 2	 7500	 4500	 1500	 7500	 TrialList	 1	 4	 0	 0	 	 3	 1	 409	 3	 3	 0	 3171	 4	 2
109	20110418	AUS_CMFT	5	 LearnLA049	 ._LearnFA049	 LearnRA049	 ._LearnLA049_T3	 ._LearnFA049_T1	 ._LearnRA049_T3	 4	 2	 4	 1500	 7500	 6000	 1500	 TrialList	 1	 5	 1	 1377	 4	 4	 0	 3340	 3	 2	 0	 3291	 2	 4
109	20110418	AUS_CMFT	6	 LearnLA076	 LearnFA076	 LearnRA076	 LearnLA076_T1	 LearnFA076_T3	 LearnRA076_T1	 2	 4	 2	 7500	 7500	 1500	 4500	 TrialList	 1	 6	 1	 1351	 2	 2	 1	 1894	 4	 4	 1	 3337	 2	 2
110	20120619	AUS_CMFT	1	 LearnLA004	 ._LearnFA004	 LearnRA004	 ._LearnLA004_T1	 ._LearnFA004_T3	 LearnRA004_T3	 2	 4	 4	 15000	 7500	 3000	 1500	 TrialList	 1	 1	 1	 2007	 2	 2	 0	 3352	 3	 4	 1	 1863	 4	 4
110	20120619	AUS_CMFT	2	 LearnLA011	 ._LearnFA011	 ._LearnRA011	 ._LearnLA011_T2	 ._LearnFA011_T3	 LearnRA011_T3	 3	 4	 4	 1500	 7500	 6000	 4500	 TrialList	 1	 2	 1	 2890	 3	 3	 1	 3852	 4	 4	 1	 4275	 4	 4
110	20120619	AUS_CMFT	3	 LearnLA022	 ._LearnFA022	 LearnRA022	 LearnLA022_T3	 ._LearnFA022_T1	 ._LearnRA022_T1	 4	 2	 2	 7500	 4500	 7500	 7500	 TrialList	 1	 3	 1	 2631	 4	 4	 0	 1479	 3	 2	 1	 2481	 2	 2
110	20120619	AUS_CMFT	4	 LearnLA040	 ._LearnFA040	 ._LearnRA040	 LearnLA040_T2	 ._LearnFA040_T2	 LearnRA040_T1	 3	 3	 2	 7500	 4500	 1500	 7500	 TrialList	 1	 4	 1	 2039	 3	 3	 1	 1772	 3	 3	 1	 2620	 2	 2
110	20120619	AUS_CMFT	5	 LearnLA049	 ._LearnFA049	 LearnRA049	 ._LearnLA049_T3	 ._LearnFA049_T1	 ._LearnRA049_T3	 4	 2	 4	 1500	 7500	 6000	 1500	 TrialList	 1	 5	 1	 2422	 4	 4	 1	 1597	 2	 2	 1	 2127	 4	 4
110	20120619	AUS_CMFT	6	 LearnLA076	 LearnFA076	 LearnRA076	 LearnLA076_T1	 LearnFA076_T3	 LearnRA076_T1	 2	 4	 2	 7500	 7500	 1500	 4500	 TrialList	 1	 6	 1	 2814	 2	 2	 1	 2522	 4	 4	 1	 1570	 2	 2
111	20120619	AUS_CMFT	1	 LearnLA004	 ._LearnFA004	 LearnRA004	 ._LearnLA004_T1	 ._LearnFA004_T3	 LearnRA004_T3	 2	 4	 4	 15000	 7500	 3000	 1500	 TrialList	 1	 1	 1	 2932	 2	 2	 0	 3662	 3	 4	 1	 3194	 4	 4
111	20120619	AUS_CMFT	2	 LearnLA011	 ._LearnFA011	 ._LearnRA011	 ._LearnLA011_T2	 ._LearnFA011_T3	 LearnRA011_T3	 3	 4	 4	 1500	 7500	 6000	 4500	 TrialList	 1	 2	 1	 2299	 3	 3	 1	 2446	 4	 4	 1	 2352	 4	 4
111	20120619	AUS_CMFT	3	 LearnLA022	 ._LearnFA022	 LearnRA022	 LearnLA022_T3	 ._LearnFA022_T1	 ._LearnRA022_T1	 4	 2	 2	 7500	 4500	 7500	 7500	 TrialList	 1	 3	 1	 1830	 4	 4	 1	 3326	 2	 2	 1	 2255	 2	 2
111	20120619	AUS_CMFT	4	 LearnLA040	 ._LearnFA040	 ._LearnRA040	 LearnLA040_T2	 ._LearnFA040_T2	 LearnRA040_T1	 3	 3	 2	 7500	 4500	 1500	 7500	 TrialList	 1	 4	 1	 1995	 3	 3	 1	 3454	 3	 3	 1	 2244	 2	 2
111	20120619	AUS_CMFT	5	 LearnLA049	 ._LearnFA049	 LearnRA049	 ._LearnLA049_T3	 ._LearnFA049_T1	 ._LearnRA049_T3	 4	 2	 4	 1500	 7500	 6000	 1500	 TrialList	 1	 5	 0	 3327	 3	 4	 0	 3589	 4	 2	 1	 4374	 4	 4
111	20120619	AUS_CMFT	6	 LearnLA076	 LearnFA076	 LearnRA076	 LearnLA076_T1	 LearnFA076_T3	 LearnRA076_T1	 2	 4	 2	 7500	 7500	 1500	 4500	 TrialList	 1	 6	 1	 1877	 2	 2	 1	 1993	 4	 4	 1	 2261	 2	 2
112	20110514	AUS_CMFT	1	 LearnLA004	 ._LearnFA004	 LearnRA004	 ._LearnLA004_T1	 ._LearnFA004_T3	 LearnRA004_T3	 2	 4	 4	 15000	 7500	 3000	 1500	 TrialList	 1	 1	 1	 2087	 2	 2	 1	 3016	 4	 4	 1	 2478	 4	 4
112	20110514	AUS_CMFT	2	 LearnLA011	 ._LearnFA011	 ._LearnRA011	 ._LearnLA011_T2	 ._LearnFA011_T3	 LearnRA011_T3	 3	 4	 4	 1500	 7500	 6000	 4500	 TrialList	 1	 2	 1	 2189	 3	 3	 1	 2315	 4	 4	 0	 2033	 2	 4
112	20110514	AUS_CMFT	3	 LearnLA022	 ._LearnFA022	 LearnRA022	 LearnLA022_T3	 ._LearnFA022_T1	 ._LearnRA022_T1	 4	 2	 2	 7500	 4500	 7500	 7500	 TrialList	 1	 3	 1	 1777	 4	 4	 1	 1907	 2	 2	 1	 1862	 2	 2
112	20110514	AUS_CMFT	4	 LearnLA040	 ._LearnFA040	 ._LearnRA040	 LearnLA040_T2	 ._LearnFA040_T2	 LearnRA040_T1	 3	 3	 2	 7500	 4500	 1500	 7500	 TrialList	 1	 4	 1	 2065	 3	 3	 1	 1530	 3	 3	 1	 2182	 2	 2
112	20110514	AUS_CMFT	5	 LearnLA049	 ._LearnFA049	 LearnRA049	 ._LearnLA049_T3	 ._LearnFA049_T1	 ._LearnRA049_T3	 4	 2	 4	 1500	 7500	 6000	 1500	 TrialList	 1	 5	 1	 2411	 4	 4	 1	 1593	 2	 2	 1	 2140	 4	 4
112	20110514	AUS_CMFT	6	 LearnLA076	 LearnFA076	 LearnRA076	 LearnLA076_T1	 LearnFA076_T3	 LearnRA076_T1	 2	 4	 2	 7500	 7500	 1500	 4500	 TrialList	 1	 6	 1	 1526	 2	 2	 1	 1817	 4	 4	 1	 1860	 2	 2
113	20110614	AUS_CMFT	1	 LearnLA004	 ._LearnFA004	 LearnRA004	 ._LearnLA004_T1	 ._LearnFA004_T3	 LearnRA004_T3	 2	 4	 4	 15000	 7500	 3000	 1500	 TrialList	 1	 1	 1	 1657	 2	 2	 1	 1883	 4	 4	 1	 1479	 4	 4
113	20110614	AUS_CMFT	2	 LearnLA011	 ._LearnFA011	 ._LearnRA011	 ._LearnLA011_T2	 ._LearnFA011_T3	 LearnRA011_T3	 3	 4	 4	 1500	 7500	 6000	 4500	 TrialList	 1	 2	 0	 1745	 2	 3	 1	 2520	 4	 4	 0	 0	 	 
113	20110614	AUS_CMFT	3	 LearnLA022	 ._LearnFA022	 LearnRA022	 LearnLA022_T3	 ._LearnFA022_T1	 ._LearnRA022_T1	 4	 2	 2	 7500	 4500	 7500	 7500	 TrialList	 1	 3	 1	 1435	 4	 4	 1	 1726	 2	 2	 1	 2251	 2	 2
113	20110614	AUS_CMFT	4	 LearnLA040	 ._LearnFA040	 ._LearnRA040	 LearnLA040_T2	 ._LearnFA040_T2	 LearnRA040_T1	 3	 3	 2	 7500	 4500	 1500	 7500	 TrialList	 1	 4	 1	 2236	 3	 3	 1	 1812	 3	 3	 1	 2489	 2	 2
113	20110614	AUS_CMFT	5	 LearnLA049	 ._LearnFA049	 LearnRA049	 ._LearnLA049_T3	 ._LearnFA049_T1	 ._LearnRA049_T3	 4	 2	 4	 1500	 7500	 6000	 1500	 TrialList	 1	 5	 1	 1473	 4	 4	 1	 2067	 2	 2	 1	 1471	 4	 4
113	20110614	AUS_CMFT	6	 LearnLA076	 LearnFA076	 LearnRA076	 LearnLA076_T1	 LearnFA076_T3	 LearnRA076_T1	 2	 4	 2	 7500	 7500	 1500	 4500	 TrialList	 1	 6	 1	 1661	 2	 2	 0	 0	 	 4	 1	 2050	 2	 2
115	20110503	AUS_CMFT	1	 LearnLA004	 ._LearnFA004	 LearnRA004	 ._LearnLA004_T1	 ._LearnFA004_T3	 LearnRA004_T3	 2	 4	 4	 15000	 7500	 3000	 1500	 TrialList	 1	 1	 1	 2567	 2	 2	 1	 1609	 4	 4	 1	 3225	 4	 4
115	20110503	AUS_CMFT	2	 LearnLA011	 ._LearnFA011	 ._LearnRA011	 ._LearnLA011_T2	 ._LearnFA011_T3	 LearnRA011_T3	 3	 4	 4	 1500	 7500	 6000	 4500	 TrialList	 1	 2	 0	 3823	 2	 3	 1	 2395	 4	 4	 1	 2978	 4	 4
115	20110503	AUS_CMFT	3	 LearnLA022	 ._LearnFA022	 LearnRA022	 LearnLA022_T3	 ._LearnFA022_T1	 ._LearnRA022_T1	 4	 2	 2	 7500	 4500	 7500	 7500	 TrialList	 1	 3	 0	 0	 	 4	 1	 3287	 2	 2	 1	 2750	 2	 2
115	20110503	AUS_CMFT	4	 LearnLA040	 ._LearnFA040	 ._LearnRA040	 LearnLA040_T2	 ._LearnFA040_T2	 LearnRA040_T1	 3	 3	 2	 7500	 4500	 1500	 7500	 TrialList	 1	 4	 0	 2522	 2	 3	 0	 3686	 4	 3	 0	 2076	 4	 2
115	20110503	AUS_CMFT	5	 LearnLA049	 ._LearnFA049	 LearnRA049	 ._LearnLA049_T3	 ._LearnFA049_T1	 ._LearnRA049_T3	 4	 2	 4	 1500	 7500	 6000	 1500	 TrialList	 1	 5	 1	 2084	 4	 4	 0	 2461	 3	 2	 1	 3445	 4	 4
115	20110503	AUS_CMFT	6	 LearnLA076	 LearnFA076	 LearnRA076	 LearnLA076_T1	 LearnFA076_T3	 LearnRA076_T1	 2	 4	 2	 7500	 7500	 1500	 4500	 TrialList	 1	 6	 0	 2472	 3	 2	 1	 3223	 4	 4	 0	 2389	 3	 2
116	20110525	AUS_CMFT	1	 LearnLA004	 ._LearnFA004	 LearnRA004	 ._LearnLA004_T1	 ._LearnFA004_T3	 LearnRA004_T3	 2	 4	 4	 15000	 7500	 3000	 1500	 TrialList	 1	 1	 1	 3836	 2	 2	 0	 3550	 2	 4	 0	 2803	 2	 4
116	20110525	AUS_CMFT	2	 LearnLA011	 ._LearnFA011	 ._LearnRA011	 ._LearnLA011_T2	 ._LearnFA011_T3	 LearnRA011_T3	 3	 4	 4	 1500	 7500	 6000	 4500	 TrialList	 1	 2	 1	 4100	 3	 3	 1	 3344	 4	 4	 0	 2612	 2	 4
116	20110525	AUS_CMFT	3	 LearnLA022	 ._LearnFA022	 LearnRA022	 LearnLA022_T3	 ._LearnFA022_T1	 ._LearnRA022_T1	 4	 2	 2	 7500	 4500	 7500	 7500	 TrialList	 1	 3	 1	 3591	 4	 4	 0	 1289	 4	 2	 1	 3021	 2	 2
116	20110525	AUS_CMFT	4	 LearnLA040	 ._LearnFA040	 ._LearnRA040	 LearnLA040_T2	 ._LearnFA040_T2	 LearnRA040_T1	 3	 3	 2	 7500	 4500	 1500	 7500	 TrialList	 1	 4	 0	 4428	 4	 3	 1	 3196	 3	 3	 0	 3458	 4	 2
116	20110525	AUS_CMFT	5	 LearnLA049	 ._LearnFA049	 LearnRA049	 ._LearnLA049_T3	 ._LearnFA049_T1	 ._LearnRA049_T3	 4	 2	 4	 1500	 7500	 6000	 1500	 TrialList	 1	 5	 0	 2480	 2	 4	 0	 2698	 3	 2	 1	 3944	 4	 4
116	20110525	AUS_CMFT	6	 LearnLA076	 LearnFA076	 LearnRA076	 LearnLA076_T1	 LearnFA076_T3	 LearnRA076_T1	 2	 4	 2	 7500	 7500	 1500	 4500	 TrialList	 1	 6	 1	 3183	 2	 2	 1	 3209	 4	 4	 0	 0	 	 
119	20110831	AUS_CMFT	1	 LearnLA004	 ._LearnFA004	 LearnRA004	 ._LearnLA004_T1	 ._LearnFA004_T3	 LearnRA004_T3	 2	 4	 4	 15000	 7500	 3000	 1500	 TrialList	 1	 1	 1	 1710	 2	 2	 0	 3831	 2	 4	 1	 2045	 4	 4
119	20110831	AUS_CMFT	2	 LearnLA011	 ._LearnFA011	 ._LearnRA011	 ._LearnLA011_T2	 ._LearnFA011_T3	 LearnRA011_T3	 3	 4	 4	 1500	 7500	 6000	 4500	 TrialList	 1	 2	 1	 2441	 3	 3	 0	 3712	 3	 4	 1	 1580	 4	 4
119	20110831	AUS_CMFT	3	 LearnLA022	 ._LearnFA022	 LearnRA022	 LearnLA022_T3	 ._LearnFA022_T1	 ._LearnRA022_T1	 4	 2	 2	 7500	 4500	 7500	 7500	 TrialList	 1	 3	 1	 2229	 4	 4	 1	 1669	 2	 2	 1	 1633	 2	 2
119	20110831	AUS_CMFT	4	 LearnLA040	 ._LearnFA040	 ._LearnRA040	 LearnLA040_T2	 ._LearnFA040_T2	 LearnRA040_T1	 3	 3	 2	 7500	 4500	 1500	 7500	 TrialList	 1	 4	 1	 1771	 3	 3	 0	 2426	 4	 3	 1	 2935	 2	 2
119	20110831	AUS_CMFT	5	 LearnLA049	 ._LearnFA049	 LearnRA049	 ._LearnLA049_T3	 ._LearnFA049_T1	 ._LearnRA049_T3	 4	 2	 4	 1500	 7500	 6000	 1500	 TrialList	 1	 5	 1	 1663	 4	 4	 1	 2485	 2	 2	 0	 1579	 2	 4
119	20110831	AUS_CMFT	6	 LearnLA076	 LearnFA076	 LearnRA076	 LearnLA076_T1	 LearnFA076_T3	 LearnRA076_T1	 2	 4	 2	 7500	 7500	 1500	 4500	 TrialList	 1	 6	 1	 2370	 2	 2	 0	 2163	 3	 4	 1	 1906	 2	 2
121	20110802	AUS_CMFT	1	 LearnLA004	 ._LearnFA004	 LearnRA004	 ._LearnLA004_T1	 ._LearnFA004_T3	 LearnRA004_T3	 2	 4	 4	 15000	 7500	 3000	 1500	 TrialList	 1	 1	 1	 1587	 2	 2	 1	 1907	 4	 4	 1	 1836	 4	 4
121	20110802	AUS_CMFT	2	 LearnLA011	 ._LearnFA011	 ._LearnRA011	 ._LearnLA011_T2	 ._LearnFA011_T3	 LearnRA011_T3	 3	 4	 4	 1500	 7500	 6000	 4500	 TrialList	 1	 2	 1	 2132	 3	 3	 0	 2858	 3	 4	 1	 2045	 4	 4
121	20110802	AUS_CMFT	3	 LearnLA022	 ._LearnFA022	 LearnRA022	 LearnLA022_T3	 ._LearnFA022_T1	 ._LearnRA022_T1	 4	 2	 2	 7500	 4500	 7500	 7500	 TrialList	 1	 3	 1	 1643	 4	 4	 1	 3111	 2	 2	 1	 3225	 2	 2
121	20110802	AUS_CMFT	4	 LearnLA040	 ._LearnFA040	 ._LearnRA040	 LearnLA040_T2	 ._LearnFA040_T2	 LearnRA040_T1	 3	 3	 2	 7500	 4500	 1500	 7500	 TrialList	 1	 4	 1	 1529	 3	 3	 1	 1859	 3	 3	 1	 3375	 2	 2
121	20110802	AUS_CMFT	5	 LearnLA049	 ._LearnFA049	 LearnRA049	 ._LearnLA049_T3	 ._LearnFA049_T1	 ._LearnRA049_T3	 4	 2	 4	 1500	 7500	 6000	 1500	 TrialList	 1	 5	 1	 3441	 4	 4	 0	 3216	 3	 2	 1	 3449	 4	 4
121	20110802	AUS_CMFT	6	 LearnLA076	 LearnFA076	 LearnRA076	 LearnLA076_T1	 LearnFA076_T3	 LearnRA076_T1	 2	 4	 2	 7500	 7500	 1500	 4500	 TrialList	 1	 6	 1	 2242	 2	 2	 1	 3232	 4	 4	 1	 3406	 2	 2
124	20110816	AUS_CMFT	1	 LearnLA004	 ._LearnFA004	 LearnRA004	 ._LearnLA004_T1	 ._LearnFA004_T3	 LearnRA004_T3	 2	 4	 4	 15000	 7500	 3000	 1500	 TrialList	 1	 1	 1	 1389	 2	 2	 1	 3045	 4	 4	 1	 2444	 4	 4
124	20110816	AUS_CMFT	2	 LearnLA011	 ._LearnFA011	 ._LearnRA011	 ._LearnLA011_T2	 ._LearnFA011_T3	 LearnRA011_T3	 3	 4	 4	 1500	 7500	 6000	 4500	 TrialList	 1	 2	 1	 1792	 3	 3	 0	 1694	 3	 4	 1	 2510	 4	 4
124	20110816	AUS_CMFT	3	 LearnLA022	 ._LearnFA022	 LearnRA022	 LearnLA022_T3	 ._LearnFA022_T1	 ._LearnRA022_T1	 4	 2	 2	 7500	 4500	 7500	 7500	 TrialList	 1	 3	 1	 1462	 4	 4	 1	 1400	 2	 2	 1	 1705	 2	 2
124	20110816	AUS_CMFT	4	 LearnLA040	 ._LearnFA040	 ._LearnRA040	 LearnLA040_T2	 ._LearnFA040_T2	 LearnRA040_T1	 3	 3	 2	 7500	 4500	 1500	 7500	 TrialList	 1	 4	 0	 3246	 2	 3	 1	 1786	 3	 3	 1	 2381	 2	 2
124	20110816	AUS_CMFT	5	 LearnLA049	 ._LearnFA049	 LearnRA049	 ._LearnLA049_T3	 ._LearnFA049_T1	 ._LearnRA049_T3	 4	 2	 4	 1500	 7500	 6000	 1500	 TrialList	 1	 5	 1	 1884	 4	 4	 1	 1536	 2	 2	 1	 1870	 4	 4
124	20110816	AUS_CMFT	6	 LearnLA076	 LearnFA076	 LearnRA076	 LearnLA076_T1	 LearnFA076_T3	 LearnRA076_T1	 2	 4	 2	 7500	 7500	 1500	 4500	 TrialList	 1	 6	 1	 1599	 2	 2	 1	 2880	 4	 4	 1	 2908	 2	 2
125	20120107	AUS_CMFT	1	 LearnLA004	 ._LearnFA004	 LearnRA004	 ._LearnLA004_T1	 ._LearnFA004_T3	 LearnRA004_T3	 2	 4	 4	 15000	 7500	 3000	 1500	 TrialList	 1	 1	 1	 1207	 2	 2	 1	 1591	 4	 4	 1	 1809	 4	 4
125	20120107	AUS_CMFT	2	 LearnLA011	 ._LearnFA011	 ._LearnRA011	 ._LearnLA011_T2	 ._LearnFA011_T3	 LearnRA011_T3	 3	 4	 4	 1500	 7500	 6000	 4500	 TrialList	 1	 2	 1	 1741	 3	 3	 1	 2306	 4	 4	 1	 1728	 4	 4
125	20120107	AUS_CMFT	3	 LearnLA022	 ._LearnFA022	 LearnRA022	 LearnLA022_T3	 ._LearnFA022_T1	 ._LearnRA022_T1	 4	 2	 2	 7500	 4500	 7500	 7500	 TrialList	 1	 3	 0	 3139	 3	 4	 1	 2682	 2	 2	 1	 1686	 2	 2
125	20120107	AUS_CMFT	4	 LearnLA040	 ._LearnFA040	 ._LearnRA040	 LearnLA040_T2	 ._LearnFA040_T2	 LearnRA040_T1	 3	 3	 2	 7500	 4500	 1500	 7500	 TrialList	 1	 4	 1	 2264	 3	 3	 1	 1981	 3	 3	 0	 2509	 3	 2
125	20120107	AUS_CMFT	5	 LearnLA049	 ._LearnFA049	 LearnRA049	 ._LearnLA049_T3	 ._LearnFA049_T1	 ._LearnRA049_T3	 4	 2	 4	 1500	 7500	 6000	 1500	 TrialList	 1	 5	 1	 3562	 4	 4	 0	 2167	 3	 2	 1	 1590	 4	 4
125	20120107	AUS_CMFT	6	 LearnLA076	 LearnFA076	 LearnRA076	 LearnLA076_T1	 LearnFA076_T3	 LearnRA076_T1	 2	 4	 2	 7500	 7500	 1500	 4500	 TrialList	 1	 6	 1	 2079	 2	 2	 0	 2812	 2	 4	 1	 2802	 2	 2
128	20120822	AUS_CMFT	1	 LearnLA004	 ._LearnFA004	 LearnRA004	 ._LearnLA004_T1	 ._LearnFA004_T3	 LearnRA004_T3	 2	 4	 4	 15000	 7500	 3000	 1500	 TrialList	 1	 1	 1	 1416	 2	 2	 1	 1130	 4	 4	 1	 1095	 4	 4
128	20120822	AUS_CMFT	2	 LearnLA011	 ._LearnFA011	 ._LearnRA011	 ._LearnLA011_T2	 ._LearnFA011_T3	 LearnRA011_T3	 3	 4	 4	 1500	 7500	 6000	 4500	 TrialList	 1	 2	 1	 967	 3	 3	 1	 1081	 4	 4	 1	 1178	 4	 4
128	20120822	AUS_CMFT	3	 LearnLA022	 ._LearnFA022	 LearnRA022	 LearnLA022_T3	 ._LearnFA022_T1	 ._LearnRA022_T1	 4	 2	 2	 7500	 4500	 7500	 7500	 TrialList	 1	 3	 1	 1198	 4	 4	 1	 1937	 2	 2	 1	 1761	 2	 2
128	20120822	AUS_CMFT	4	 LearnLA040	 ._LearnFA040	 ._LearnRA040	 LearnLA040_T2	 ._LearnFA040_T2	 LearnRA040_T1	 3	 3	 2	 7500	 4500	 1500	 7500	 TrialList	 1	 4	 1	 2064	 3	 3	 1	 2007	 3	 3	 1	 2054	 2	 2
128	20120822	AUS_CMFT	5	 LearnLA049	 ._LearnFA049	 LearnRA049	 ._LearnLA049_T3	 ._LearnFA049_T1	 ._LearnRA049_T3	 4	 2	 4	 1500	 7500	 6000	 1500	 TrialList	 1	 5	 1	 1384	 4	 4	 1	 1443	 2	 2	 1	 1927	 4	 4
128	20120822	AUS_CMFT	6	 LearnLA076	 LearnFA076	 LearnRA076	 LearnLA076_T1	 LearnFA076_T3	 LearnRA076_T1	 2	 4	 2	 7500	 7500	 1500	 4500	 TrialList	 1	 6	 1	 1666	 2	 2	 1	 1490	 4	 4	 1	 1479	 2	 2
129	20110502	AUS_CMFT	1	 LearnLA004	 ._LearnFA004	 LearnRA004	 ._LearnLA004_T1	 ._LearnFA004_T3	 LearnRA004_T3	 2	 4	 4	 15000	 7500	 3000	 1500	 TrialList	 1	 1	 1	 2572	 2	 2	 1	 1436	 4	 4	 1	 2070	 4	 4
129	20110502	AUS_CMFT	2	 LearnLA011	 ._LearnFA011	 ._LearnRA011	 ._LearnLA011_T2	 ._LearnFA011_T3	 LearnRA011_T3	 3	 4	 4	 1500	 7500	 6000	 4500	 TrialList	 1	 2	 1	 2104	 3	 3	 1	 2658	 4	 4	 1	 2691	 4	 4
129	20110502	AUS_CMFT	3	 LearnLA022	 ._LearnFA022	 LearnRA022	 LearnLA022_T3	 ._LearnFA022_T1	 ._LearnRA022_T1	 4	 2	 2	 7500	 4500	 7500	 7500	 TrialList	 1	 3	 1	 1855	 4	 4	 1	 1987	 2	 2	 1	 2044	 2	 2
129	20110502	AUS_CMFT	4	 LearnLA040	 ._LearnFA040	 ._LearnRA040	 LearnLA040_T2	 ._LearnFA040_T2	 LearnRA040_T1	 3	 3	 2	 7500	 4500	 1500	 7500	 TrialList	 1	 4	 1	 1531	 3	 3	 1	 2220	 3	 3	 1	 2758	 2	 2
129	20110502	AUS_CMFT	5	 LearnLA049	 ._LearnFA049	 LearnRA049	 ._LearnLA049_T3	 ._LearnFA049_T1	 ._LearnRA049_T3	 4	 2	 4	 1500	 7500	 6000	 1500	 TrialList	 1	 5	 1	 2905	 4	 4	 1	 2194	 2	 2	 1	 2145	 4	 4
129	20110502	AUS_CMFT	6	 LearnLA076	 LearnFA076	 LearnRA076	 LearnLA076_T1	 LearnFA076_T3	 LearnRA076_T1	 2	 4	 2	 7500	 7500	 1500	 4500	 TrialList	 1	 6	 1	 3592	 2	 2	 1	 2581	 4	 4	 1	 1406	 2	 2
130	20110725	AUS_CMFT	1	 LearnLA004	 ._LearnFA004	 LearnRA004	 ._LearnLA004_T1	 ._LearnFA004_T3	 LearnRA004_T3	 2	 4	 4	 15000	 7500	 3000	 1500	 TrialList	 1	 1	 1	 1452	 2	 2	 1	 2296	 4	 4	 1	 1808	 4	 4
130	20110725	AUS_CMFT	2	 LearnLA011	 ._LearnFA011	 ._LearnRA011	 ._LearnLA011_T2	 ._LearnFA011_T3	 LearnRA011_T3	 3	 4	 4	 1500	 7500	 6000	 4500	 TrialList	 1	 2	 1	 3031	 3	 3	 1	 3457	 4	 4	 1	 3113	 4	 4
130	20110725	AUS_CMFT	3	 LearnLA022	 ._LearnFA022	 LearnRA022	 LearnLA022_T3	 ._LearnFA022_T1	 ._LearnRA022_T1	 4	 2	 2	 7500	 4500	 7500	 7500	 TrialList	 1	 3	 1	 2235	 4	 4	 1	 1991	 2	 2	 1	 3392	 2	 2
130	20110725	AUS_CMFT	4	 LearnLA040	 ._LearnFA040	 ._LearnRA040	 LearnLA040_T2	 ._LearnFA040_T2	 LearnRA040_T1	 3	 3	 2	 7500	 4500	 1500	 7500	 TrialList	 1	 4	 1	 3220	 3	 3	 1	 2072	 3	 3	 1	 3724	 2	 2
130	20110725	AUS_CMFT	5	 LearnLA049	 ._LearnFA049	 LearnRA049	 ._LearnLA049_T3	 ._LearnFA049_T1	 ._LearnRA049_T3	 4	 2	 4	 1500	 7500	 6000	 1500	 TrialList	 1	 5	 1	 2618	 4	 4	 1	 2214	 2	 2	 1	 2654	 4	 4
130	20110725	AUS_CMFT	6	 LearnLA076	 LearnFA076	 LearnRA076	 LearnLA076_T1	 LearnFA076_T3	 LearnRA076_T1	 2	 4	 2	 7500	 7500	 1500	 4500	 TrialList	 1	 6	 1	 2163	 2	 2	 1	 2489	 4	 4	 1	 2602	 2	 2
131	20110725	AUS_CMFT	1	 LearnLA004	 ._LearnFA004	 LearnRA004	 ._LearnLA004_T1	 ._LearnFA004_T3	 LearnRA004_T3	 2	 4	 4	 15000	 7500	 3000	 1500	 TrialList	 1	 1	 1	 2281	 2	 2	 1	 2344	 4	 4	 1	 2443	 4	 4
131	20110725	AUS_CMFT	2	 LearnLA011	 ._LearnFA011	 ._LearnRA011	 ._LearnLA011_T2	 ._LearnFA011_T3	 LearnRA011_T3	 3	 4	 4	 1500	 7500	 6000	 4500	 TrialList	 1	 2	 1	 2463	 3	 3	 1	 3312	 4	 4	 1	 4189	 4	 4
131	20110725	AUS_CMFT	3	 LearnLA022	 ._LearnFA022	 LearnRA022	 LearnLA022_T3	 ._LearnFA022_T1	 ._LearnRA022_T1	 4	 2	 2	 7500	 4500	 7500	 7500	 TrialList	 1	 3	 1	 3425	 4	 4	 1	 2175	 2	 2	 1	 2830	 2	 2
131	20110725	AUS_CMFT	4	 LearnLA040	 ._LearnFA040	 ._LearnRA040	 LearnLA040_T2	 ._LearnFA040_T2	 LearnRA040_T1	 3	 3	 2	 7500	 4500	 1500	 7500	 TrialList	 1	 4	 0	 3529	 2	 3	 1	 4832	 3	 3	 1	 2746	 2	 2
131	20110725	AUS_CMFT	5	 LearnLA049	 ._LearnFA049	 LearnRA049	 ._LearnLA049_T3	 ._LearnFA049_T1	 ._LearnRA049_T3	 4	 2	 4	 1500	 7500	 6000	 1500	 TrialList	 1	 5	 1	 1898	 4	 4	 0	 3074	 3	 2	 0	 0	 	 
131	20110725	AUS_CMFT	6	 LearnLA076	 LearnFA076	 LearnRA076	 LearnLA076_T1	 LearnFA076_T3	 LearnRA076_T1	 2	 4	 2	 7500	 7500	 1500	 4500	 TrialList	 1	 6	 0	 1636	 4	 2	 1	 2753	 4	 4	 1	 1825	 2	 2
135	20110601	AUS_CMFT	1	 LearnLA004	 ._LearnFA004	 LearnRA004	 ._LearnLA004_T1	 ._LearnFA004_T3	 LearnRA004_T3	 2	 4	 4	 15000	 7500	 3000	 1500	 TrialList	 1	 1	 1	 2093	 2	 2	 1	 2060	 4	 4	 1	 1936	 4	 4
135	20110601	AUS_CMFT	2	 LearnLA011	 ._LearnFA011	 ._LearnRA011	 ._LearnLA011_T2	 ._LearnFA011_T3	 LearnRA011_T3	 3	 4	 4	 1500	 7500	 6000	 4500	 TrialList	 1	 2	 1	 2140	 3	 3	 0	 0	 	 4	 1	 1443	 4	 4
135	20110601	AUS_CMFT	3	 LearnLA022	 ._LearnFA022	 LearnRA022	 LearnLA022_T3	 ._LearnFA022_T1	 ._LearnRA022_T1	 4	 2	 2	 7500	 4500	 7500	 7500	 TrialList	 1	 3	 1	 2170	 4	 4	 1	 1967	 2	 2	 1	 2054	 2	 2
135	20110601	AUS_CMFT	4	 LearnLA040	 ._LearnFA040	 ._LearnRA040	 LearnLA040_T2	 ._LearnFA040_T2	 LearnRA040_T1	 3	 3	 2	 7500	 4500	 1500	 7500	 TrialList	 1	 4	 1	 2199	 3	 3	 1	 2800	 3	 3	 1	 2422	 2	 2
135	20110601	AUS_CMFT	5	 LearnLA049	 ._LearnFA049	 LearnRA049	 ._LearnLA049_T3	 ._LearnFA049_T1	 ._LearnRA049_T3	 4	 2	 4	 1500	 7500	 6000	 1500	 TrialList	 1	 5	 1	 2013	 4	 4	 1	 3470	 2	 2	 1	 1950	 4	 4
135	20110601	AUS_CMFT	6	 LearnLA076	 LearnFA076	 LearnRA076	 LearnLA076_T1	 LearnFA076_T3	 LearnRA076_T1	 2	 4	 2	 7500	 7500	 1500	 4500	 TrialList	 1	 6	 1	 2558	 2	 2	 1	 1932	 4	 4	 1	 2033	 2	 2
136	20120107	AUS_CMFT	1	 LearnLA004	 ._LearnFA004	 LearnRA004	 ._LearnLA004_T1	 ._LearnFA004_T3	 LearnRA004_T3	 2	 4	 4	 15000	 7500	 3000	 1500	 TrialList	 1	 1	 1	 2415	 2	 2	 0	 1856	 3	 4	 1	 3113	 4	 4
136	20120107	AUS_CMFT	2	 LearnLA011	 ._LearnFA011	 ._LearnRA011	 ._LearnLA011_T2	 ._LearnFA011_T3	 LearnRA011_T3	 3	 4	 4	 1500	 7500	 6000	 4500	 TrialList	 1	 2	 1	 2743	 3	 3	 1	 2275	 4	 4	 1	 2865	 4	 4
136	20120107	AUS_CMFT	3	 LearnLA022	 ._LearnFA022	 LearnRA022	 LearnLA022_T3	 ._LearnFA022_T1	 ._LearnRA022_T1	 4	 2	 2	 7500	 4500	 7500	 7500	 TrialList	 1	 3	 1	 2174	 4	 4	 0	 0	 	 2	 1	 2262	 2	 2
136	20120107	AUS_CMFT	4	 LearnLA040	 ._LearnFA040	 ._LearnRA040	 LearnLA040_T2	 ._LearnFA040_T2	 LearnRA040_T1	 3	 3	 2	 7500	 4500	 1500	 7500	 TrialList	 1	 4	 1	 4440	 3	 3	 0	 4681	 4	 3	 0	 3563	 4	 2
136	20120107	AUS_CMFT	5	 LearnLA049	 ._LearnFA049	 LearnRA049	 ._LearnLA049_T3	 ._LearnFA049_T1	 ._LearnRA049_T3	 4	 2	 4	 1500	 7500	 6000	 1500	 TrialList	 1	 5	 1	 1916	 4	 4	 1	 3173	 2	 2	 0	 0	 	 
136	20120107	AUS_CMFT	6	 LearnLA076	 LearnFA076	 LearnRA076	 LearnLA076_T1	 LearnFA076_T3	 LearnRA076_T1	 2	 4	 2	 7500	 7500	 1500	 4500	 TrialList	 1	 6	 1	 4122	 2	 2	 0	 1560	 2	 4	 1	 3658	 2	 2
141	20110629	AUS_CMFT	1	 LearnLA004	 ._LearnFA004	 LearnRA004	 ._LearnLA004_T1	 ._LearnFA004_T3	 LearnRA004_T3	 2	 4	 4	 15000	 7500	 3000	 1500	 TrialList	 1	 1	 1	 2068	 2	 2	 1	 2598	 4	 4	 1	 1773	 4	 4
141	20110629	AUS_CMFT	2	 LearnLA011	 ._LearnFA011	 ._LearnRA011	 ._LearnLA011_T2	 ._LearnFA011_T3	 LearnRA011_T3	 3	 4	 4	 1500	 7500	 6000	 4500	 TrialList	 1	 2	 1	 1408	 3	 3	 1	 3710	 4	 4	 1	 2075	 4	 4
141	20110629	AUS_CMFT	3	 LearnLA022	 ._LearnFA022	 LearnRA022	 LearnLA022_T3	 ._LearnFA022_T1	 ._LearnRA022_T1	 4	 2	 2	 7500	 4500	 7500	 7500	 TrialList	 1	 3	 1	 3620	 4	 4	 0	 1757	 3	 2	 1	 1335	 2	 2
141	20110629	AUS_CMFT	4	 LearnLA040	 ._LearnFA040	 ._LearnRA040	 LearnLA040_T2	 ._LearnFA040_T2	 LearnRA040_T1	 3	 3	 2	 7500	 4500	 1500	 7500	 TrialList	 1	 4	 1	 2709	 3	 3	 1	 2917	 3	 3	 1	 2475	 2	 2
141	20110629	AUS_CMFT	5	 LearnLA049	 ._LearnFA049	 LearnRA049	 ._LearnLA049_T3	 ._LearnFA049_T1	 ._LearnRA049_T3	 4	 2	 4	 1500	 7500	 6000	 1500	 TrialList	 1	 5	 1	 2744	 4	 4	 0	 2096	 3	 2	 0	 3457	 3	 4
141	20110629	AUS_CMFT	6	 LearnLA076	 LearnFA076	 LearnRA076	 LearnLA076_T1	 LearnFA076_T3	 LearnRA076_T1	 2	 4	 2	 7500	 7500	 1500	 4500	 TrialList	 1	 6	 1	 3345	 2	 2	 1	 4194	 4	 4	 1	 1664	 2	 2
143	20110531	AUS_CMFT	1	 LearnLA004	 ._LearnFA004	 LearnRA004	 ._LearnLA004_T1	 ._LearnFA004_T3	 LearnRA004_T3	 2	 4	 4	 15000	 7500	 3000	 1500	 TrialList	 1	 1	 0	 1299	 4	 2	 0	 1821	 3	 4	 0	 965	 3	 4
143	20110531	AUS_CMFT	2	 LearnLA011	 ._LearnFA011	 ._LearnRA011	 ._LearnLA011_T2	 ._LearnFA011_T3	 LearnRA011_T3	 3	 4	 4	 1500	 7500	 6000	 4500	 TrialList	 1	 2	 1	 785	 3	 3	 0	 1382	 3	 4	 0	 1219	 3	 4
143	20110531	AUS_CMFT	3	 LearnLA022	 ._LearnFA022	 LearnRA022	 LearnLA022_T3	 ._LearnFA022_T1	 ._LearnRA022_T1	 4	 2	 2	 7500	 4500	 7500	 7500	 TrialList	 1	 3	 0	 970	 3	 4	 0	 2336	 4	 2	 1	 1791	 2	 2
143	20110531	AUS_CMFT	4	 LearnLA040	 ._LearnFA040	 ._LearnRA040	 LearnLA040_T2	 ._LearnFA040_T2	 LearnRA040_T1	 3	 3	 2	 7500	 4500	 1500	 7500	 TrialList	 1	 4	 1	 1035	 3	 3	 1	 1405	 3	 3	 0	 2455	 3	 2
143	20110531	AUS_CMFT	5	 LearnLA049	 ._LearnFA049	 LearnRA049	 ._LearnLA049_T3	 ._LearnFA049_T1	 ._LearnRA049_T3	 4	 2	 4	 1500	 7500	 6000	 1500	 TrialList	 1	 5	 1	 1761	 4	 4	 0	 1543	 3	 2	 0	 1072	 2	 4
143	20110531	AUS_CMFT	6	 LearnLA076	 LearnFA076	 LearnRA076	 LearnLA076_T1	 LearnFA076_T3	 LearnRA076_T1	 2	 4	 2	 7500	 7500	 1500	 4500	 TrialList	 1	 6	 1	 2121	 2	 2	 1	 1975	 4	 4	 1	 1474	 2	 2
144	20110627	AUS_CMFT	1	 LearnLA004	 ._LearnFA004	 LearnRA004	 ._LearnLA004_T1	 ._LearnFA004_T3	 LearnRA004_T3	 2	 4	 4	 15000	 7500	 3000	 1500	 TrialList	 1	 1	 1	 1936	 2	 2	 1	 2653	 4	 4	 1	 3195	 4	 4
144	20110627	AUS_CMFT	2	 LearnLA011	 ._LearnFA011	 ._LearnRA011	 ._LearnLA011_T2	 ._LearnFA011_T3	 LearnRA011_T3	 3	 4	 4	 1500	 7500	 6000	 4500	 TrialList	 1	 2	 1	 2043	 3	 3	 1	 2720	 4	 4	 1	 3046	 4	 4
144	20110627	AUS_CMFT	3	 LearnLA022	 ._LearnFA022	 LearnRA022	 LearnLA022_T3	 ._LearnFA022_T1	 ._LearnRA022_T1	 4	 2	 2	 7500	 4500	 7500	 7500	 TrialList	 1	 3	 1	 2118	 4	 4	 1	 1885	 2	 2	 1	 1960	 2	 2
144	20110627	AUS_CMFT	4	 LearnLA040	 ._LearnFA040	 ._LearnRA040	 LearnLA040_T2	 ._LearnFA040_T2	 LearnRA040_T1	 3	 3	 2	 7500	 4500	 1500	 7500	 TrialList	 1	 4	 1	 1826	 3	 3	 1	 2644	 3	 3	 1	 1876	 2	 2
144	20110627	AUS_CMFT	5	 LearnLA049	 ._LearnFA049	 LearnRA049	 ._LearnLA049_T3	 ._LearnFA049_T1	 ._LearnRA049_T3	 4	 2	 4	 1500	 7500	 6000	 1500	 TrialList	 1	 5	 1	 2275	 4	 4	 1	 1927	 2	 2	 1	 2027	 4	 4
144	20110627	AUS_CMFT	6	 LearnLA076	 LearnFA076	 LearnRA076	 LearnLA076_T1	 LearnFA076_T3	 LearnRA076_T1	 2	 4	 2	 7500	 7500	 1500	 4500	 TrialList	 1	 6	 1	 2989	 2	 2	 1	 2872	 4	 4	 1	 2049	 2	 2
146	20111003	AUS_CMFT	1	 LearnLA004	 ._LearnFA004	 LearnRA004	 ._LearnLA004_T1	 ._LearnFA004_T3	 LearnRA004_T3	 2	 4	 4	 15000	 7500	 3000	 1500	 TrialList	 1	 1	 1	 1498	 2	 2	 1	 1809	 4	 4	 1	 3229	 4	 4
146	20111003	AUS_CMFT	2	 LearnLA011	 ._LearnFA011	 ._LearnRA011	 ._LearnLA011_T2	 ._LearnFA011_T3	 LearnRA011_T3	 3	 4	 4	 1500	 7500	 6000	 4500	 TrialList	 1	 2	 1	 2044	 3	 3	 0	 0	 	 4	 1	 3286	 4	 4
146	20111003	AUS_CMFT	3	 LearnLA022	 ._LearnFA022	 LearnRA022	 LearnLA022_T3	 ._LearnFA022_T1	 ._LearnRA022_T1	 4	 2	 2	 7500	 4500	 7500	 7500	 TrialList	 1	 3	 1	 2172	 4	 4	 0	 0	 	 2	 0	 3384	 4	 2
146	20111003	AUS_CMFT	4	 LearnLA040	 ._LearnFA040	 ._LearnRA040	 LearnLA040_T2	 ._LearnFA040_T2	 LearnRA040_T1	 3	 3	 2	 7500	 4500	 1500	 7500	 TrialList	 1	 4	 0	 3214	 2	 3	 1	 3570	 3	 3	 1	 2803	 2	 2
146	20111003	AUS_CMFT	5	 LearnLA049	 ._LearnFA049	 LearnRA049	 ._LearnLA049_T3	 ._LearnFA049_T1	 ._LearnRA049_T3	 4	 2	 4	 1500	 7500	 6000	 1500	 TrialList	 1	 5	 1	 1739	 4	 4	 1	 2089	 2	 2	 1	 1654	 4	 4
146	20111003	AUS_CMFT	6	 LearnLA076	 LearnFA076	 LearnRA076	 LearnLA076_T1	 LearnFA076_T3	 LearnRA076_T1	 2	 4	 2	 7500	 7500	 1500	 4500	 TrialList	 1	 6	 1	 1952	 2	 2	 1	 3724	 4	 4	 1	 2360	 2	 2
147	20111003	AUS_CMFT	1	 LearnLA004	 ._LearnFA004	 LearnRA004	 ._LearnLA004_T1	 ._LearnFA004_T3	 LearnRA004_T3	 2	 4	 4	 15000	 7500	 3000	 1500	 TrialList	 1	 1	 1	 1954	 2	 2	 1	 2394	 4	 4	 1	 1592	 4	 4
147	20111003	AUS_CMFT	2	 LearnLA011	 ._LearnFA011	 ._LearnRA011	 ._LearnLA011_T2	 ._LearnFA011_T3	 LearnRA011_T3	 3	 4	 4	 1500	 7500	 6000	 4500	 TrialList	 1	 2	 1	 2592	 3	 3	 0	 3832	 2	 4	 1	 1908	 4	 4
147	20111003	AUS_CMFT	3	 LearnLA022	 ._LearnFA022	 LearnRA022	 LearnLA022_T3	 ._LearnFA022_T1	 ._LearnRA022_T1	 4	 2	 2	 7500	 4500	 7500	 7500	 TrialList	 1	 3	 1	 2530	 4	 4	 0	 2909	 3	 2	 1	 2392	 2	 2
147	20111003	AUS_CMFT	4	 LearnLA040	 ._LearnFA040	 ._LearnRA040	 LearnLA040_T2	 ._LearnFA040_T2	 LearnRA040_T1	 3	 3	 2	 7500	 4500	 1500	 7500	 TrialList	 1	 4	 1	 2278	 3	 3	 1	 2210	 3	 3	 1	 1877	 2	 2
147	20111003	AUS_CMFT	5	 LearnLA049	 ._LearnFA049	 LearnRA049	 ._LearnLA049_T3	 ._LearnFA049_T1	 ._LearnRA049_T3	 4	 2	 4	 1500	 7500	 6000	 1500	 TrialList	 1	 5	 1	 2605	 4	 4	 0	 2493	 3	 2	 0	 3602	 2	 4
147	20111003	AUS_CMFT	6	 LearnLA076	 LearnFA076	 LearnRA076	 LearnLA076_T1	 LearnFA076_T3	 LearnRA076_T1	 2	 4	 2	 7500	 7500	 1500	 4500	 TrialList	 1	 6	 1	 2823	 2	 2	 1	 2156	 4	 4	 1	 2440	 2	 2
148	20120512	AUS_CMFT	1	 LearnLA004	 ._LearnFA004	 LearnRA004	 ._LearnLA004_T1	 ._LearnFA004_T3	 LearnRA004_T3	 2	 4	 4	 15000	 7500	 3000	 1500	 TrialList	 1	 1	 1	 1487	 2	 2	 1	 2111	 4	 4	 1	 1782	 4	 4
148	20120512	AUS_CMFT	2	 LearnLA011	 ._LearnFA011	 ._LearnRA011	 ._LearnLA011_T2	 ._LearnFA011_T3	 LearnRA011_T3	 3	 4	 4	 1500	 7500	 6000	 4500	 TrialList	 1	 2	 1	 2124	 3	 3	 1	 2546	 4	 4	 1	 2493	 4	 4
148	20120512	AUS_CMFT	3	 LearnLA022	 ._LearnFA022	 LearnRA022	 LearnLA022_T3	 ._LearnFA022_T1	 ._LearnRA022_T1	 4	 2	 2	 7500	 4500	 7500	 7500	 TrialList	 1	 3	 1	 2113	 4	 4	 1	 1653	 2	 2	 1	 1590	 2	 2
148	20120512	AUS_CMFT	4	 LearnLA040	 ._LearnFA040	 ._LearnRA040	 LearnLA040_T2	 ._LearnFA040_T2	 LearnRA040_T1	 3	 3	 2	 7500	 4500	 1500	 7500	 TrialList	 1	 4	 1	 1631	 3	 3	 1	 2158	 3	 3	 1	 2932	 2	 2
148	20120512	AUS_CMFT	5	 LearnLA049	 ._LearnFA049	 LearnRA049	 ._LearnLA049_T3	 ._LearnFA049_T1	 ._LearnRA049_T3	 4	 2	 4	 1500	 7500	 6000	 1500	 TrialList	 1	 5	 1	 1804	 4	 4	 1	 1680	 2	 2	 1	 1638	 4	 4
148	20120512	AUS_CMFT	6	 LearnLA076	 LearnFA076	 LearnRA076	 LearnLA076_T1	 LearnFA076_T3	 LearnRA076_T1	 2	 4	 2	 7500	 7500	 1500	 4500	 TrialList	 1	 6	 1	 1329	 2	 2	 1	 1777	 4	 4	 1	 1756	 2	 2
149	20110323	AUS_CMFT	1	 LearnLA004	 ._LearnFA004	 LearnRA004	 ._LearnLA004_T1	 ._LearnFA004_T3	 LearnRA004_T3	 2	 4	 4	 15000	 7500	 3000	 1500	 TrialList	 1	 1	 1	 1789	 2	 2	 1	 1640	 4	 4	 1	 1332	 4	 4
149	20110323	AUS_CMFT	2	 LearnLA011	 ._LearnFA011	 ._LearnRA011	 ._LearnLA011_T2	 ._LearnFA011_T3	 LearnRA011_T3	 3	 4	 4	 1500	 7500	 6000	 4500	 TrialList	 1	 2	 1	 1959	 3	 3	 1	 1934	 4	 4	 1	 2022	 4	 4
149	20110323	AUS_CMFT	3	 LearnLA022	 ._LearnFA022	 LearnRA022	 LearnLA022_T3	 ._LearnFA022_T1	 ._LearnRA022_T1	 4	 2	 2	 7500	 4500	 7500	 7500	 TrialList	 1	 3	 1	 2135	 4	 4	 1	 4096	 2	 2	 1	 1960	 2	 2
149	20110323	AUS_CMFT	4	 LearnLA040	 ._LearnFA040	 ._LearnRA040	 LearnLA040_T2	 ._LearnFA040_T2	 LearnRA040_T1	 3	 3	 2	 7500	 4500	 1500	 7500	 TrialList	 1	 4	 1	 2338	 3	 3	 1	 2356	 3	 3	 0	 4282	 4	 2
149	20110323	AUS_CMFT	5	 LearnLA049	 ._LearnFA049	 LearnRA049	 ._LearnLA049_T3	 ._LearnFA049_T1	 ._LearnRA049_T3	 4	 2	 4	 1500	 7500	 6000	 1500	 TrialList	 1	 5	 1	 1390	 4	 4	 1	 1737	 2	 2	 1	 1468	 4	 4
149	20110323	AUS_CMFT	6	 LearnLA076	 LearnFA076	 LearnRA076	 LearnLA076_T1	 LearnFA076_T3	 LearnRA076_T1	 2	 4	 2	 7500	 7500	 1500	 4500	 TrialList	 1	 6	 1	 2183	 2	 2	 0	 3525	 3	 4	 0	 2795	 3	 2
150	20110406	AUS_CMFT	1	 LearnLA004	 ._LearnFA004	 LearnRA004	 ._LearnLA004_T1	 ._LearnFA004_T3	 LearnRA004_T3	 2	 4	 4	 15000	 7500	 3000	 1500	 TrialList	 1	 1	 1	 2283	 2	 2	 1	 2614	 4	 4	 1	 2302	 4	 4
150	20110406	AUS_CMFT	2	 LearnLA011	 ._LearnFA011	 ._LearnRA011	 ._LearnLA011_T2	 ._LearnFA011_T3	 LearnRA011_T3	 3	 4	 4	 1500	 7500	 6000	 4500	 TrialList	 1	 2	 1	 1601	 3	 3	 1	 2780	 4	 4	 1	 1601	 4	 4
150	20110406	AUS_CMFT	3	 LearnLA022	 ._LearnFA022	 LearnRA022	 LearnLA022_T3	 ._LearnFA022_T1	 ._LearnRA022_T1	 4	 2	 2	 7500	 4500	 7500	 7500	 TrialList	 1	 3	 1	 1500	 4	 4	 0	 3111	 3	 2	 1	 1520	 2	 2
150	20110406	AUS_CMFT	4	 LearnLA040	 ._LearnFA040	 ._LearnRA040	 LearnLA040_T2	 ._LearnFA040_T2	 LearnRA040_T1	 3	 3	 2	 7500	 4500	 1500	 7500	 TrialList	 1	 4	 1	 1475	 3	 3	 1	 2170	 3	 3	 1	 2008	 2	 2
150	20110406	AUS_CMFT	5	 LearnLA049	 ._LearnFA049	 LearnRA049	 ._LearnLA049_T3	 ._LearnFA049_T1	 ._LearnRA049_T3	 4	 2	 4	 1500	 7500	 6000	 1500	 TrialList	 1	 5	 1	 1240	 4	 4	 1	 1612	 2	 2	 1	 1596	 4	 4
150	20110406	AUS_CMFT	6	 LearnLA076	 LearnFA076	 LearnRA076	 LearnLA076_T1	 LearnFA076_T3	 LearnRA076_T1	 2	 4	 2	 7500	 7500	 1500	 4500	 TrialList	 1	 6	 1	 1375	 2	 2	 0	 2386	 3	 4	 1	 2417	 2	 2
153	20111001	AUS_CMFT	1	 LearnLA004	 ._LearnFA004	 LearnRA004	 ._LearnLA004_T1	 ._LearnFA004_T3	 LearnRA004_T3	 2	 4	 4	 15000	 7500	 3000	 1500	 TrialList	 1	 1	 1	 1381	 2	 2	 1	 2022	 4	 4	 1	 2691	 4	 4
153	20111001	AUS_CMFT	2	 LearnLA011	 ._LearnFA011	 ._LearnRA011	 ._LearnLA011_T2	 ._LearnFA011_T3	 LearnRA011_T3	 3	 4	 4	 1500	 7500	 6000	 4500	 TrialList	 1	 2	 1	 1531	 3	 3	 0	 1674	 3	 4	 1	 2893	 4	 4
153	20111001	AUS_CMFT	3	 LearnLA022	 ._LearnFA022	 LearnRA022	 LearnLA022_T3	 ._LearnFA022_T1	 ._LearnRA022_T1	 4	 2	 2	 7500	 4500	 7500	 7500	 TrialList	 1	 3	 1	 1940	 4	 4	 1	 1799	 2	 2	 1	 2298	 2	 2
153	20111001	AUS_CMFT	4	 LearnLA040	 ._LearnFA040	 ._LearnRA040	 LearnLA040_T2	 ._LearnFA040_T2	 LearnRA040_T1	 3	 3	 2	 7500	 4500	 1500	 7500	 TrialList	 1	 4	 1	 1113	 3	 3	 1	 1246	 3	 3	 1	 1751	 2	 2
153	20111001	AUS_CMFT	5	 LearnLA049	 ._LearnFA049	 LearnRA049	 ._LearnLA049_T3	 ._LearnFA049_T1	 ._LearnRA049_T3	 4	 2	 4	 1500	 7500	 6000	 1500	 TrialList	 1	 5	 1	 1351	 4	 4	 1	 1487	 2	 2	 1	 1724	 4	 4
153	20111001	AUS_CMFT	6	 LearnLA076	 LearnFA076	 LearnRA076	 LearnLA076_T1	 LearnFA076_T3	 LearnRA076_T1	 2	 4	 2	 7500	 7500	 1500	 4500	 TrialList	 1	 6	 1	 1730	 2	 2	 1	 1631	 4	 4	 1	 1387	 2	 2
156	20110502	AUS_CMFT	1	 LearnLA004	 ._LearnFA004	 LearnRA004	 ._LearnLA004_T1	 ._LearnFA004_T3	 LearnRA004_T3	 2	 4	 4	 15000	 7500	 3000	 1500	 TrialList	 1	 1	 1	 2280	 2	 2	 1	 1593	 4	 4	 1	 1868	 4	 4
156	20110502	AUS_CMFT	2	 LearnLA011	 ._LearnFA011	 ._LearnRA011	 ._LearnLA011_T2	 ._LearnFA011_T3	 LearnRA011_T3	 3	 4	 4	 1500	 7500	 6000	 4500	 TrialList	 1	 2	 1	 2018	 3	 3	 1	 1684	 4	 4	 1	 2121	 4	 4
156	20110502	AUS_CMFT	3	 LearnLA022	 ._LearnFA022	 LearnRA022	 LearnLA022_T3	 ._LearnFA022_T1	 ._LearnRA022_T1	 4	 2	 2	 7500	 4500	 7500	 7500	 TrialList	 1	 3	 1	 1944	 4	 4	 1	 2005	 2	 2	 1	 2499	 2	 2
156	20110502	AUS_CMFT	4	 LearnLA040	 ._LearnFA040	 ._LearnRA040	 LearnLA040_T2	 ._LearnFA040_T2	 LearnRA040_T1	 3	 3	 2	 7500	 4500	 1500	 7500	 TrialList	 1	 4	 1	 2345	 3	 3	 1	 2619	 3	 3	 1	 1576	 2	 2
156	20110502	AUS_CMFT	5	 LearnLA049	 ._LearnFA049	 LearnRA049	 ._LearnLA049_T3	 ._LearnFA049_T1	 ._LearnRA049_T3	 4	 2	 4	 1500	 7500	 6000	 1500	 TrialList	 1	 5	 1	 2484	 4	 4	 1	 3062	 2	 2	 1	 1716	 4	 4
156	20110502	AUS_CMFT	6	 LearnLA076	 LearnFA076	 LearnRA076	 LearnLA076_T1	 LearnFA076_T3	 LearnRA076_T1	 2	 4	 2	 7500	 7500	 1500	 4500	 TrialList	 1	 6	 1	 1899	 2	 2	 1	 3383	 4	 4	 1	 1782	 2	 2
158	20110621	AUS_CMFT	1	 LearnLA004	 ._LearnFA004	 LearnRA004	 ._LearnLA004_T1	 ._LearnFA004_T3	 LearnRA004_T3	 2	 4	 4	 15000	 7500	 3000	 1500	 TrialList	 1	 1	 1	 1755	 2	 2	 1	 3275	 4	 4	 1	 2386	 4	 4
158	20110621	AUS_CMFT	2	 LearnLA011	 ._LearnFA011	 ._LearnRA011	 ._LearnLA011_T2	 ._LearnFA011_T3	 LearnRA011_T3	 3	 4	 4	 1500	 7500	 6000	 4500	 TrialList	 1	 2	 1	 2702	 3	 3	 1	 4696	 4	 4	 1	 2698	 4	 4
158	20110621	AUS_CMFT	3	 LearnLA022	 ._LearnFA022	 LearnRA022	 LearnLA022_T3	 ._LearnFA022_T1	 ._LearnRA022_T1	 4	 2	 2	 7500	 4500	 7500	 7500	 TrialList	 1	 3	 1	 2465	 4	 4	 1	 2253	 2	 2	 1	 3151	 2	 2
158	20110621	AUS_CMFT	4	 LearnLA040	 ._LearnFA040	 ._LearnRA040	 LearnLA040_T2	 ._LearnFA040_T2	 LearnRA040_T1	 3	 3	 2	 7500	 4500	 1500	 7500	 TrialList	 1	 4	 1	 2411	 3	 3	 1	 1602	 3	 3	 1	 1484	 2	 2
158	20110621	AUS_CMFT	5	 LearnLA049	 ._LearnFA049	 LearnRA049	 ._LearnLA049_T3	 ._LearnFA049_T1	 ._LearnRA049_T3	 4	 2	 4	 1500	 7500	 6000	 1500	 TrialList	 1	 5	 1	 2663	 4	 4	 1	 1790	 2	 2	 1	 1730	 4	 4
158	20110621	AUS_CMFT	6	 LearnLA076	 LearnFA076	 LearnRA076	 LearnLA076_T1	 LearnFA076_T3	 LearnRA076_T1	 2	 4	 2	 7500	 7500	 1500	 4500	 TrialList	 1	 6	 1	 3164	 2	 2	 1	 2887	 4	 4	 1	 1938	 2	 2
160	20110613	AUS_CMFT	1	 LearnLA004	 ._LearnFA004	 LearnRA004	 ._LearnLA004_T1	 ._LearnFA004_T3	 LearnRA004_T3	 2	 4	 4	 15000	 7500	 3000	 1500	 TrialList	 1	 1	 1	 3017	 2	 2	 1	 2111	 4	 4	 1	 1672	 4	 4
160	20110613	AUS_CMFT	2	 LearnLA011	 ._LearnFA011	 ._LearnRA011	 ._LearnLA011_T2	 ._LearnFA011_T3	 LearnRA011_T3	 3	 4	 4	 1500	 7500	 6000	 4500	 TrialList	 1	 2	 1	 1633	 3	 3	 1	 2030	 4	 4	 0	 0	 	 
160	20110613	AUS_CMFT	3	 LearnLA022	 ._LearnFA022	 LearnRA022	 LearnLA022_T3	 ._LearnFA022_T1	 ._LearnRA022_T1	 4	 2	 2	 7500	 4500	 7500	 7500	 TrialList	 1	 3	 1	 1408	 4	 4	 1	 3679	 2	 2	 1	 1901	 2	 2
160	20110613	AUS_CMFT	4	 LearnLA040	 ._LearnFA040	 ._LearnRA040	 LearnLA040_T2	 ._LearnFA040_T2	 LearnRA040_T1	 3	 3	 2	 7500	 4500	 1500	 7500	 TrialList	 1	 4	 0	 0	 	 3	 1	 2282	 3	 3	 1	 2309	 2	 2
160	20110613	AUS_CMFT	5	 LearnLA049	 ._LearnFA049	 LearnRA049	 ._LearnLA049_T3	 ._LearnFA049_T1	 ._LearnRA049_T3	 4	 2	 4	 1500	 7500	 6000	 1500	 TrialList	 1	 5	 1	 4934	 4	 4	 1	 1457	 2	 2	 1	 1559	 4	 4
160	20110613	AUS_CMFT	6	 LearnLA076	 LearnFA076	 LearnRA076	 LearnLA076_T1	 LearnFA076_T3	 LearnRA076_T1	 2	 4	 2	 7500	 7500	 1500	 4500	 TrialList	 1	 6	 1	 2546	 2	 2	 0	 1866	 2	 4	 1	 1305	 2	 2
161	20120808	AUS_CMFT	1	 LearnLA004	 ._LearnFA004	 LearnRA004	 ._LearnLA004_T1	 ._LearnFA004_T3	 LearnRA004_T3	 2	 4	 4	 15000	 7500	 3000	 1500	 TrialList	 1	 1	 1	 3499	 2	 2	 1	 2986	 4	 4	 0	 4140	 2	 4
161	20120808	AUS_CMFT	2	 LearnLA011	 ._LearnFA011	 ._LearnRA011	 ._LearnLA011_T2	 ._LearnFA011_T3	 LearnRA011_T3	 3	 4	 4	 1500	 7500	 6000	 4500	 TrialList	 1	 2	 1	 2567	 3	 3	 1	 2709	 4	 4	 0	 3425	 2	 4
161	20120808	AUS_CMFT	3	 LearnLA022	 ._LearnFA022	 LearnRA022	 LearnLA022_T3	 ._LearnFA022_T1	 ._LearnRA022_T1	 4	 2	 2	 7500	 4500	 7500	 7500	 TrialList	 1	 3	 1	 1502	 4	 4	 1	 2026	 2	 2	 1	 1931	 2	 2
161	20120808	AUS_CMFT	4	 LearnLA040	 ._LearnFA040	 ._LearnRA040	 LearnLA040_T2	 ._LearnFA040_T2	 LearnRA040_T1	 3	 3	 2	 7500	 4500	 1500	 7500	 TrialList	 1	 4	 1	 2766	 3	 3	 0	 2967	 4	 3	 0	 2516	 3	 2
161	20120808	AUS_CMFT	5	 LearnLA049	 ._LearnFA049	 LearnRA049	 ._LearnLA049_T3	 ._LearnFA049_T1	 ._LearnRA049_T3	 4	 2	 4	 1500	 7500	 6000	 1500	 TrialList	 1	 5	 0	 4309	 3	 4	 1	 1536	 2	 2	 0	 2026	 3	 4
161	20120808	AUS_CMFT	6	 LearnLA076	 LearnFA076	 LearnRA076	 LearnLA076_T1	 LearnFA076_T3	 LearnRA076_T1	 2	 4	 2	 7500	 7500	 1500	 4500	 TrialList	 1	 6	 1	 4309	 2	 2	 1	 2378	 4	 4	 1	 1671	 2	 2
164	20110404	AUS_CMFT	1	 LearnLA004	 ._LearnFA004	 LearnRA004	 ._LearnLA004_T1	 ._LearnFA004_T3	 LearnRA004_T3	 2	 4	 4	 15000	 7500	 3000	 1500	 TrialList	 1	 1	 1	 1499	 2	 2	 1	 2478	 4	 4	 1	 1524	 4	 4
164	20110404	AUS_CMFT	2	 LearnLA011	 ._LearnFA011	 ._LearnRA011	 ._LearnLA011_T2	 ._LearnFA011_T3	 LearnRA011_T3	 3	 4	 4	 1500	 7500	 6000	 4500	 TrialList	 1	 2	 1	 2050	 3	 3	 1	 2812	 4	 4	 1	 1609	 4	 4
164	20110404	AUS_CMFT	3	 LearnLA022	 ._LearnFA022	 LearnRA022	 LearnLA022_T3	 ._LearnFA022_T1	 ._LearnRA022_T1	 4	 2	 2	 7500	 4500	 7500	 7500	 TrialList	 1	 3	 1	 1888	 4	 4	 1	 1750	 2	 2	 1	 2282	 2	 2
164	20110404	AUS_CMFT	4	 LearnLA040	 ._LearnFA040	 ._LearnRA040	 LearnLA040_T2	 ._LearnFA040_T2	 LearnRA040_T1	 3	 3	 2	 7500	 4500	 1500	 7500	 TrialList	 1	 4	 1	 2104	 3	 3	 1	 1463	 3	 3	 1	 1900	 2	 2
164	20110404	AUS_CMFT	5	 LearnLA049	 ._LearnFA049	 LearnRA049	 ._LearnLA049_T3	 ._LearnFA049_T1	 ._LearnRA049_T3	 4	 2	 4	 1500	 7500	 6000	 1500	 TrialList	 1	 5	 1	 1906	 4	 4	 1	 1886	 2	 2	 1	 1726	 4	 4
164	20110404	AUS_CMFT	6	 LearnLA076	 LearnFA076	 LearnRA076	 LearnLA076_T1	 LearnFA076_T3	 LearnRA076_T1	 2	 4	 2	 7500	 7500	 1500	 4500	 TrialList	 1	 6	 1	 1434	 2	 2	 1	 2526	 4	 4	 1	 1735	 2	 2
165	20110405	AUS_CMFT	1	 LearnLA004	 ._LearnFA004	 LearnRA004	 ._LearnLA004_T1	 ._LearnFA004_T3	 LearnRA004_T3	 2	 4	 4	 15000	 7500	 3000	 1500	 TrialList	 1	 1	 1	 2317	 2	 2	 1	 3412	 4	 4	 1	 2139	 4	 4
165	20110405	AUS_CMFT	2	 LearnLA011	 ._LearnFA011	 ._LearnRA011	 ._LearnLA011_T2	 ._LearnFA011_T3	 LearnRA011_T3	 3	 4	 4	 1500	 7500	 6000	 4500	 TrialList	 1	 2	 1	 1960	 3	 3	 1	 2094	 4	 4	 1	 2343	 4	 4
165	20110405	AUS_CMFT	3	 LearnLA022	 ._LearnFA022	 LearnRA022	 LearnLA022_T3	 ._LearnFA022_T1	 ._LearnRA022_T1	 4	 2	 2	 7500	 4500	 7500	 7500	 TrialList	 1	 3	 1	 2275	 4	 4	 1	 3311	 2	 2	 1	 2128	 2	 2
165	20110405	AUS_CMFT	4	 LearnLA040	 ._LearnFA040	 ._LearnRA040	 LearnLA040_T2	 ._LearnFA040_T2	 LearnRA040_T1	 3	 3	 2	 7500	 4500	 1500	 7500	 TrialList	 1	 4	 1	 2067	 3	 3	 1	 2776	 3	 3	 1	 2060	 2	 2
165	20110405	AUS_CMFT	5	 LearnLA049	 ._LearnFA049	 LearnRA049	 ._LearnLA049_T3	 ._LearnFA049_T1	 ._LearnRA049_T3	 4	 2	 4	 1500	 7500	 6000	 1500	 TrialList	 1	 5	 1	 2179	 4	 4	 1	 3241	 2	 2	 1	 1965	 4	 4
165	20110405	AUS_CMFT	6	 LearnLA076	 LearnFA076	 LearnRA076	 LearnLA076_T1	 LearnFA076_T3	 LearnRA076_T1	 2	 4	 2	 7500	 7500	 1500	 4500	 TrialList	 1	 6	 1	 1923	 2	 2	 1	 2562	 4	 4	 1	 2526	 2	 2
166	20110419	AUS_CMFT	1	 LearnLA004	 ._LearnFA004	 LearnRA004	 ._LearnLA004_T1	 ._LearnFA004_T3	 LearnRA004_T3	 2	 4	 4	 15000	 7500	 3000	 1500	 TrialList	 1	 1	 1	 2058	 2	 2	 1	 1382	 4	 4	 1	 1168	 4	 4
166	20110419	AUS_CMFT	2	 LearnLA011	 ._LearnFA011	 ._LearnRA011	 ._LearnLA011_T2	 ._LearnFA011_T3	 LearnRA011_T3	 3	 4	 4	 1500	 7500	 6000	 4500	 TrialList	 1	 2	 1	 1438	 3	 3	 1	 1537	 4	 4	 1	 1323	 4	 4
166	20110419	AUS_CMFT	3	 LearnLA022	 ._LearnFA022	 LearnRA022	 LearnLA022_T3	 ._LearnFA022_T1	 ._LearnRA022_T1	 4	 2	 2	 7500	 4500	 7500	 7500	 TrialList	 1	 3	 1	 1715	 4	 4	 1	 1855	 2	 2	 1	 2462	 2	 2
166	20110419	AUS_CMFT	4	 LearnLA040	 ._LearnFA040	 ._LearnRA040	 LearnLA040_T2	 ._LearnFA040_T2	 LearnRA040_T1	 3	 3	 2	 7500	 4500	 1500	 7500	 TrialList	 1	 4	 1	 2573	 3	 3	 1	 1523	 3	 3	 1	 1604	 2	 2
166	20110419	AUS_CMFT	5	 LearnLA049	 ._LearnFA049	 LearnRA049	 ._LearnLA049_T3	 ._LearnFA049_T1	 ._LearnRA049_T3	 4	 2	 4	 1500	 7500	 6000	 1500	 TrialList	 1	 5	 1	 1674	 4	 4	 1	 2386	 2	 2	 1	 1275	 4	 4
166	20110419	AUS_CMFT	6	 LearnLA076	 LearnFA076	 LearnRA076	 LearnLA076_T1	 LearnFA076_T3	 LearnRA076_T1	 2	 4	 2	 7500	 7500	 1500	 4500	 TrialList	 1	 6	 1	 1711	 2	 2	 1	 1601	 4	 4	 1	 2041	 2	 2
167	20120428	AUS_CMFT	1	 LearnLA004	 ._LearnFA004	 LearnRA004	 ._LearnLA004_T1	 ._LearnFA004_T3	 LearnRA004_T3	 2	 4	 4	 15000	 7500	 3000	 1500	 TrialList	 1	 1	 1	 2370	 2	 2	 1	 2264	 4	 4	 1	 2251	 4	 4
167	20120428	AUS_CMFT	2	 LearnLA011	 ._LearnFA011	 ._LearnRA011	 ._LearnLA011_T2	 ._LearnFA011_T3	 LearnRA011_T3	 3	 4	 4	 1500	 7500	 6000	 4500	 TrialList	 1	 2	 1	 1659	 3	 3	 1	 2527	 4	 4	 1	 1997	 4	 4
167	20120428	AUS_CMFT	3	 LearnLA022	 ._LearnFA022	 LearnRA022	 LearnLA022_T3	 ._LearnFA022_T1	 ._LearnRA022_T1	 4	 2	 2	 7500	 4500	 7500	 7500	 TrialList	 1	 3	 1	 2724	 4	 4	 1	 2130	 2	 2	 1	 2624	 2	 2
167	20120428	AUS_CMFT	4	 LearnLA040	 ._LearnFA040	 ._LearnRA040	 LearnLA040_T2	 ._LearnFA040_T2	 LearnRA040_T1	 3	 3	 2	 7500	 4500	 1500	 7500	 TrialList	 1	 4	 1	 1985	 3	 3	 1	 2790	 3	 3	 1	 2242	 2	 2
167	20120428	AUS_CMFT	5	 LearnLA049	 ._LearnFA049	 LearnRA049	 ._LearnLA049_T3	 ._LearnFA049_T1	 ._LearnRA049_T3	 4	 2	 4	 1500	 7500	 6000	 1500	 TrialList	 1	 5	 1	 2892	 4	 4	 1	 2068	 2	 2	 1	 2019	 4	 4
167	20120428	AUS_CMFT	6	 LearnLA076	 LearnFA076	 LearnRA076	 LearnLA076_T1	 LearnFA076_T3	 LearnRA076_T1	 2	 4	 2	 7500	 7500	 1500	 4500	 TrialList	 1	 6	 1	 1725	 2	 2	 1	 2114	 4	 4	 1	 2193	 2	 2
168	20120428	AUS_CMFT	1	 LearnLA004	 ._LearnFA004	 LearnRA004	 ._LearnLA004_T1	 ._LearnFA004_T3	 LearnRA004_T3	 2	 4	 4	 15000	 7500	 3000	 1500	 TrialList	 1	 1	 1	 1820	 2	 2	 1	 2125	 4	 4	 1	 2046	 4	 4
168	20120428	AUS_CMFT	2	 LearnLA011	 ._LearnFA011	 ._LearnRA011	 ._LearnLA011_T2	 ._LearnFA011_T3	 LearnRA011_T3	 3	 4	 4	 1500	 7500	 6000	 4500	 TrialList	 1	 2	 1	 1886	 3	 3	 0	 1825	 2	 4	 1	 1757	 4	 4
168	20120428	AUS_CMFT	3	 LearnLA022	 ._LearnFA022	 LearnRA022	 LearnLA022_T3	 ._LearnFA022_T1	 ._LearnRA022_T1	 4	 2	 2	 7500	 4500	 7500	 7500	 TrialList	 1	 3	 1	 1337	 4	 4	 1	 1795	 2	 2	 1	 1739	 2	 2
168	20120428	AUS_CMFT	4	 LearnLA040	 ._LearnFA040	 ._LearnRA040	 LearnLA040_T2	 ._LearnFA040_T2	 LearnRA040_T1	 3	 3	 2	 7500	 4500	 1500	 7500	 TrialList	 1	 4	 1	 1669	 3	 3	 1	 2129	 3	 3	 1	 1548	 2	 2
168	20120428	AUS_CMFT	5	 LearnLA049	 ._LearnFA049	 LearnRA049	 ._LearnLA049_T3	 ._LearnFA049_T1	 ._LearnRA049_T3	 4	 2	 4	 1500	 7500	 6000	 1500	 TrialList	 1	 5	 1	 1913	 4	 4	 1	 1875	 2	 2	 1	 1923	 4	 4
168	20120428	AUS_CMFT	6	 LearnLA076	 LearnFA076	 LearnRA076	 LearnLA076_T1	 LearnFA076_T3	 LearnRA076_T1	 2	 4	 2	 7500	 7500	 1500	 4500	 TrialList	 1	 6	 1	 2962	 2	 2	 1	 1839	 4	 4	 1	 2250	 2	 2
170	20120512	AUS_CMFT	1	 LearnLA004	 ._LearnFA004	 LearnRA004	 ._LearnLA004_T1	 ._LearnFA004_T3	 LearnRA004_T3	 2	 4	 4	 15000	 7500	 3000	 1500	 TrialList	 1	 1	 1	 2025	 2	 2	 1	 2359	 4	 4	 1	 2373	 4	 4
170	20120512	AUS_CMFT	2	 LearnLA011	 ._LearnFA011	 ._LearnRA011	 ._LearnLA011_T2	 ._LearnFA011_T3	 LearnRA011_T3	 3	 4	 4	 1500	 7500	 6000	 4500	 TrialList	 1	 2	 1	 1910	 3	 3	 1	 2440	 4	 4	 1	 1501	 4	 4
170	20120512	AUS_CMFT	3	 LearnLA022	 ._LearnFA022	 LearnRA022	 LearnLA022_T3	 ._LearnFA022_T1	 ._LearnRA022_T1	 4	 2	 2	 7500	 4500	 7500	 7500	 TrialList	 1	 3	 1	 1969	 4	 4	 1	 4007	 2	 2	 1	 1456	 2	 2
170	20120512	AUS_CMFT	4	 LearnLA040	 ._LearnFA040	 ._LearnRA040	 LearnLA040_T2	 ._LearnFA040_T2	 LearnRA040_T1	 3	 3	 2	 7500	 4500	 1500	 7500	 TrialList	 1	 4	 1	 2135	 3	 3	 1	 1600	 3	 3	 1	 3235	 2	 2
170	20120512	AUS_CMFT	5	 LearnLA049	 ._LearnFA049	 LearnRA049	 ._LearnLA049_T3	 ._LearnFA049_T1	 ._LearnRA049_T3	 4	 2	 4	 1500	 7500	 6000	 1500	 TrialList	 1	 5	 1	 2502	 4	 4	 1	 1557	 2	 2	 1	 1769	 4	 4
170	20120512	AUS_CMFT	6	 LearnLA076	 LearnFA076	 LearnRA076	 LearnLA076_T1	 LearnFA076_T3	 LearnRA076_T1	 2	 4	 2	 7500	 7500	 1500	 4500	 TrialList	 1	 6	 1	 1702	 2	 2	 1	 2746	 4	 4	 1	 1787	 2	 2
172	20120112	AUS_CMFT	1	 LearnLA004	 ._LearnFA004	 LearnRA004	 ._LearnLA004_T1	 ._LearnFA004_T3	 LearnRA004_T3	 2	 4	 4	 15000	 7500	 3000	 1500	 TrialList	 1	 1	 1	 3575	 2	 2	 1	 3849	 4	 4	 1	 2593	 4	 4
172	20120112	AUS_CMFT	2	 LearnLA011	 ._LearnFA011	 ._LearnRA011	 ._LearnLA011_T2	 ._LearnFA011_T3	 LearnRA011_T3	 3	 4	 4	 1500	 7500	 6000	 4500	 TrialList	 1	 2	 1	 2043	 3	 3	 1	 2286	 4	 4	 1	 1214	 4	 4
172	20120112	AUS_CMFT	3	 LearnLA022	 ._LearnFA022	 LearnRA022	 LearnLA022_T3	 ._LearnFA022_T1	 ._LearnRA022_T1	 4	 2	 2	 7500	 4500	 7500	 7500	 TrialList	 1	 3	 1	 1271	 4	 4	 1	 2352	 2	 2	 1	 1865	 2	 2
172	20120112	AUS_CMFT	4	 LearnLA040	 ._LearnFA040	 ._LearnRA040	 LearnLA040_T2	 ._LearnFA040_T2	 LearnRA040_T1	 3	 3	 2	 7500	 4500	 1500	 7500	 TrialList	 1	 4	 1	 2299	 3	 3	 1	 2349	 3	 3	 1	 2836	 2	 2
172	20120112	AUS_CMFT	5	 LearnLA049	 ._LearnFA049	 LearnRA049	 ._LearnLA049_T3	 ._LearnFA049_T1	 ._LearnRA049_T3	 4	 2	 4	 1500	 7500	 6000	 1500	 TrialList	 1	 5	 1	 1683	 4	 4	 1	 2260	 2	 2	 1	 2126	 4	 4
172	20120112	AUS_CMFT	6	 LearnLA076	 LearnFA076	 LearnRA076	 LearnLA076_T1	 LearnFA076_T3	 LearnRA076_T1	 2	 4	 2	 7500	 7500	 1500	 4500	 TrialList	 1	 6	 1	 1949	 2	 2	 1	 3361	 4	 4	 1	 1902	 2	 2
174	20111012	AUS_CMFT	1	 LearnLA004	 ._LearnFA004	 LearnRA004	 ._LearnLA004_T1	 ._LearnFA004_T3	 LearnRA004_T3	 2	 4	 4	 15000	 7500	 3000	 1500	 TrialList	 1	 1	 1	 1379	 2	 2	 1	 1599	 4	 4	 1	 1613	 4	 4
174	20111012	AUS_CMFT	2	 LearnLA011	 ._LearnFA011	 ._LearnRA011	 ._LearnLA011_T2	 ._LearnFA011_T3	 LearnRA011_T3	 3	 4	 4	 1500	 7500	 6000	 4500	 TrialList	 1	 2	 1	 2038	 3	 3	 1	 3092	 4	 4	 1	 1897	 4	 4
174	20111012	AUS_CMFT	3	 LearnLA022	 ._LearnFA022	 LearnRA022	 LearnLA022_T3	 ._LearnFA022_T1	 ._LearnRA022_T1	 4	 2	 2	 7500	 4500	 7500	 7500	 TrialList	 1	 3	 1	 2223	 4	 4	 1	 1614	 2	 2	 1	 1897	 2	 2
174	20111012	AUS_CMFT	4	 LearnLA040	 ._LearnFA040	 ._LearnRA040	 LearnLA040_T2	 ._LearnFA040_T2	 LearnRA040_T1	 3	 3	 2	 7500	 4500	 1500	 7500	 TrialList	 1	 4	 1	 1827	 3	 3	 1	 2154	 3	 3	 1	 2336	 2	 2
174	20111012	AUS_CMFT	5	 LearnLA049	 ._LearnFA049	 LearnRA049	 ._LearnLA049_T3	 ._LearnFA049_T1	 ._LearnRA049_T3	 4	 2	 4	 1500	 7500	 6000	 1500	 TrialList	 1	 5	 1	 2035	 4	 4	 1	 1967	 2	 2	 1	 1809	 4	 4
174	20111012	AUS_CMFT	6	 LearnLA076	 LearnFA076	 LearnRA076	 LearnLA076_T1	 LearnFA076_T3	 LearnRA076_T1	 2	 4	 2	 7500	 7500	 1500	 4500	 TrialList	 1	 6	 1	 1887	 2	 2	 1	 2751	 4	 4	 1	 1954	 2	 2
177	20110615	AUS_CMFT	1	 LearnLA004	 ._LearnFA004	 LearnRA004	 ._LearnLA004_T1	 ._LearnFA004_T3	 LearnRA004_T3	 2	 4	 4	 15000	 7500	 3000	 1500	 TrialList	 1	 1	 1	 1379	 2	 2	 1	 1523	 4	 4	 1	 1047	 4	 4
177	20110615	AUS_CMFT	2	 LearnLA011	 ._LearnFA011	 ._LearnRA011	 ._LearnLA011_T2	 ._LearnFA011_T3	 LearnRA011_T3	 3	 4	 4	 1500	 7500	 6000	 4500	 TrialList	 1	 2	 1	 1536	 3	 3	 0	 1540	 3	 4	 1	 1324	 4	 4
177	20110615	AUS_CMFT	3	 LearnLA022	 ._LearnFA022	 LearnRA022	 LearnLA022_T3	 ._LearnFA022_T1	 ._LearnRA022_T1	 4	 2	 2	 7500	 4500	 7500	 7500	 TrialList	 1	 3	 1	 1997	 4	 4	 1	 2112	 2	 2	 1	 3917	 2	 2
177	20110615	AUS_CMFT	4	 LearnLA040	 ._LearnFA040	 ._LearnRA040	 LearnLA040_T2	 ._LearnFA040_T2	 LearnRA040_T1	 3	 3	 2	 7500	 4500	 1500	 7500	 TrialList	 1	 4	 1	 2668	 3	 3	 1	 1871	 3	 3	 1	 3471	 2	 2
177	20110615	AUS_CMFT	5	 LearnLA049	 ._LearnFA049	 LearnRA049	 ._LearnLA049_T3	 ._LearnFA049_T1	 ._LearnRA049_T3	 4	 2	 4	 1500	 7500	 6000	 1500	 TrialList	 1	 5	 1	 3052	 4	 4	 1	 2166	 2	 2	 1	 1622	 4	 4
177	20110615	AUS_CMFT	6	 LearnLA076	 LearnFA076	 LearnRA076	 LearnLA076_T1	 LearnFA076_T3	 LearnRA076_T1	 2	 4	 2	 7500	 7500	 1500	 4500	 TrialList	 1	 6	 0	 0	 	 2	 0	 2819	 3	 4	 1	 2881	 2	 2
178	20111112	AUS_CMFT	1	 LearnLA004	 ._LearnFA004	 LearnRA004	 ._LearnLA004_T1	 ._LearnFA004_T3	 LearnRA004_T3	 2	 4	 4	 15000	 7500	 3000	 1500	 TrialList	 1	 1	 1	 1244	 2	 2	 1	 1149	 4	 4	 1	 1005	 4	 4
178	20111112	AUS_CMFT	2	 LearnLA011	 ._LearnFA011	 ._LearnRA011	 ._LearnLA011_T2	 ._LearnFA011_T3	 LearnRA011_T3	 3	 4	 4	 1500	 7500	 6000	 4500	 TrialList	 1	 2	 1	 1519	 3	 3	 1	 1977	 4	 4	 1	 1794	 4	 4
178	20111112	AUS_CMFT	3	 LearnLA022	 ._LearnFA022	 LearnRA022	 LearnLA022_T3	 ._LearnFA022_T1	 ._LearnRA022_T1	 4	 2	 2	 7500	 4500	 7500	 7500	 TrialList	 1	 3	 1	 1196	 4	 4	 1	 1819	 2	 2	 1	 1191	 2	 2
178	20111112	AUS_CMFT	4	 LearnLA040	 ._LearnFA040	 ._LearnRA040	 LearnLA040_T2	 ._LearnFA040_T2	 LearnRA040_T1	 3	 3	 2	 7500	 4500	 1500	 7500	 TrialList	 1	 4	 1	 1940	 3	 3	 1	 1100	 3	 3	 1	 1442	 2	 2
178	20111112	AUS_CMFT	5	 LearnLA049	 ._LearnFA049	 LearnRA049	 ._LearnLA049_T3	 ._LearnFA049_T1	 ._LearnRA049_T3	 4	 2	 4	 1500	 7500	 6000	 1500	 TrialList	 1	 5	 1	 1170	 4	 4	 1	 1172	 2	 2	 1	 1062	 4	 4
178	20111112	AUS_CMFT	6	 LearnLA076	 LearnFA076	 LearnRA076	 LearnLA076_T1	 LearnFA076_T3	 LearnRA076_T1	 2	 4	 2	 7500	 7500	 1500	 4500	 TrialList	 1	 6	 1	 1565	 2	 2	 1	 1883	 4	 4	 1	 1197	 2	 2
179	20111112	AUS_CMFT	1	 LearnLA004	 ._LearnFA004	 LearnRA004	 ._LearnLA004_T1	 ._LearnFA004_T3	 LearnRA004_T3	 2	 4	 4	 15000	 7500	 3000	 1500	 TrialList	 1	 1	 1	 1375	 2	 2	 1	 1605	 4	 4	 1	 1847	 4	 4
179	20111112	AUS_CMFT	2	 LearnLA011	 ._LearnFA011	 ._LearnRA011	 ._LearnLA011_T2	 ._LearnFA011_T3	 LearnRA011_T3	 3	 4	 4	 1500	 7500	 6000	 4500	 TrialList	 1	 2	 1	 1256	 3	 3	 1	 1429	 4	 4	 1	 2842	 4	 4
179	20111112	AUS_CMFT	3	 LearnLA022	 ._LearnFA022	 LearnRA022	 LearnLA022_T3	 ._LearnFA022_T1	 ._LearnRA022_T1	 4	 2	 2	 7500	 4500	 7500	 7500	 TrialList	 1	 3	 0	 3193	 3	 4	 1	 3300	 2	 2	 1	 1417	 2	 2
179	20111112	AUS_CMFT	4	 LearnLA040	 ._LearnFA040	 ._LearnRA040	 LearnLA040_T2	 ._LearnFA040_T2	 LearnRA040_T1	 3	 3	 2	 7500	 4500	 1500	 7500	 TrialList	 1	 4	 0	 3328	 2	 3	 1	 2242	 3	 3	 1	 2174	 2	 2
179	20111112	AUS_CMFT	5	 LearnLA049	 ._LearnFA049	 LearnRA049	 ._LearnLA049_T3	 ._LearnFA049_T1	 ._LearnRA049_T3	 4	 2	 4	 1500	 7500	 6000	 1500	 TrialList	 1	 5	 1	 1526	 4	 4	 1	 2388	 2	 2	 1	 2731	 4	 4
179	20111112	AUS_CMFT	6	 LearnLA076	 LearnFA076	 LearnRA076	 LearnLA076_T1	 LearnFA076_T3	 LearnRA076_T1	 2	 4	 2	 7500	 7500	 1500	 4500	 TrialList	 1	 6	 0	 1875	 3	 2	 1	 3349	 4	 4	 1	 1314	 2	 2
182	20120430	AUS_CMFT	1	 LearnLA004	 ._LearnFA004	 LearnRA004	 ._LearnLA004_T1	 ._LearnFA004_T3	 LearnRA004_T3	 2	 4	 4	 15000	 7500	 3000	 1500	 TrialList	 1	 1	 1	 1038	 2	 2	 1	 1170	 4	 4	 1	 1199	 4	 4
182	20120430	AUS_CMFT	2	 LearnLA011	 ._LearnFA011	 ._LearnRA011	 ._LearnLA011_T2	 ._LearnFA011_T3	 LearnRA011_T3	 3	 4	 4	 1500	 7500	 6000	 4500	 TrialList	 1	 2	 1	 1231	 3	 3	 0	 1285	 2	 4	 1	 1701	 4	 4
182	20120430	AUS_CMFT	3	 LearnLA022	 ._LearnFA022	 LearnRA022	 LearnLA022_T3	 ._LearnFA022_T1	 ._LearnRA022_T1	 4	 2	 2	 7500	 4500	 7500	 7500	 TrialList	 1	 3	 1	 1158	 4	 4	 1	 1242	 2	 2	 1	 1125	 2	 2
182	20120430	AUS_CMFT	4	 LearnLA040	 ._LearnFA040	 ._LearnRA040	 LearnLA040_T2	 ._LearnFA040_T2	 LearnRA040_T1	 3	 3	 2	 7500	 4500	 1500	 7500	 TrialList	 1	 4	 1	 1163	 3	 3	 1	 1509	 3	 3	 0	 1758	 3	 2
182	20120430	AUS_CMFT	5	 LearnLA049	 ._LearnFA049	 LearnRA049	 ._LearnLA049_T3	 ._LearnFA049_T1	 ._LearnRA049_T3	 4	 2	 4	 1500	 7500	 6000	 1500	 TrialList	 1	 5	 0	 1283	 3	 4	 1	 1346	 2	 2	 1	 1307	 4	 4
182	20120430	AUS_CMFT	6	 LearnLA076	 LearnFA076	 LearnRA076	 LearnLA076_T1	 LearnFA076_T3	 LearnRA076_T1	 2	 4	 2	 7500	 7500	 1500	 4500	 TrialList	 1	 6	 0	 2130	 4	 2	 1	 1420	 4	 4	 1	 1023	 2	 2
183	20110810	AUS_CMFT	1	 LearnLA004	 ._LearnFA004	 LearnRA004	 ._LearnLA004_T1	 ._LearnFA004_T3	 LearnRA004_T3	 2	 4	 4	 15000	 7500	 3000	 1500	 TrialList	 1	 1	 1	 2088	 2	 2	 1	 2037	 4	 4	 0	 1925	 2	 4
183	20110810	AUS_CMFT	2	 LearnLA011	 ._LearnFA011	 ._LearnRA011	 ._LearnLA011_T2	 ._LearnFA011_T3	 LearnRA011_T3	 3	 4	 4	 1500	 7500	 6000	 4500	 TrialList	 1	 2	 1	 1887	 3	 3	 0	 1333	 3	 4	 1	 2146	 4	 4
183	20110810	AUS_CMFT	3	 LearnLA022	 ._LearnFA022	 LearnRA022	 LearnLA022_T3	 ._LearnFA022_T1	 ._LearnRA022_T1	 4	 2	 2	 7500	 4500	 7500	 7500	 TrialList	 1	 3	 1	 4248	 4	 4	 1	 2763	 2	 2	 1	 2024	 2	 2
183	20110810	AUS_CMFT	4	 LearnLA040	 ._LearnFA040	 ._LearnRA040	 LearnLA040_T2	 ._LearnFA040_T2	 LearnRA040_T1	 3	 3	 2	 7500	 4500	 1500	 7500	 TrialList	 1	 4	 0	 2295	 2	 3	 0	 3304	 4	 3	 1	 2262	 2	 2
183	20110810	AUS_CMFT	5	 LearnLA049	 ._LearnFA049	 LearnRA049	 ._LearnLA049_T3	 ._LearnFA049_T1	 ._LearnRA049_T3	 4	 2	 4	 1500	 7500	 6000	 1500	 TrialList	 1	 5	 1	 2411	 4	 4	 1	 4573	 2	 2	 1	 3858	 4	 4
183	20110810	AUS_CMFT	6	 LearnLA076	 LearnFA076	 LearnRA076	 LearnLA076_T1	 LearnFA076_T3	 LearnRA076_T1	 2	 4	 2	 7500	 7500	 1500	 4500	 TrialList	 1	 6	 1	 4920	 2	 2	 0	 3003	 2	 4	 1	 2543	 2	 2
184	20110820	AUS_CMFT	1	 LearnLA004	 ._LearnFA004	 LearnRA004	 ._LearnLA004_T1	 ._LearnFA004_T3	 LearnRA004_T3	 2	 4	 4	 15000	 7500	 3000	 1500	 TrialList	 1	 1	 1	 1442	 2	 2	 1	 2309	 4	 4	 1	 2224	 4	 4
184	20110820	AUS_CMFT	2	 LearnLA011	 ._LearnFA011	 ._LearnRA011	 ._LearnLA011_T2	 ._LearnFA011_T3	 LearnRA011_T3	 3	 4	 4	 1500	 7500	 6000	 4500	 TrialList	 1	 2	 1	 2429	 3	 3	 1	 2585	 4	 4	 0	 0	 	 
184	20110820	AUS_CMFT	3	 LearnLA022	 ._LearnFA022	 LearnRA022	 LearnLA022_T3	 ._LearnFA022_T1	 ._LearnRA022_T1	 4	 2	 2	 7500	 4500	 7500	 7500	 TrialList	 1	 3	 0	 2501	 2	 4	 1	 2996	 2	 2	 1	 2337	 2	 2
184	20110820	AUS_CMFT	4	 LearnLA040	 ._LearnFA040	 ._LearnRA040	 LearnLA040_T2	 ._LearnFA040_T2	 LearnRA040_T1	 3	 3	 2	 7500	 4500	 1500	 7500	 TrialList	 1	 4	 1	 2510	 3	 3	 1	 1970	 3	 3	 0	 2434	 3	 2
184	20110820	AUS_CMFT	5	 LearnLA049	 ._LearnFA049	 LearnRA049	 ._LearnLA049_T3	 ._LearnFA049_T1	 ._LearnRA049_T3	 4	 2	 4	 1500	 7500	 6000	 1500	 TrialList	 1	 5	 1	 2883	 4	 4	 1	 2946	 2	 2	 0	 2029	 2	 4
184	20110820	AUS_CMFT	6	 LearnLA076	 LearnFA076	 LearnRA076	 LearnLA076_T1	 LearnFA076_T3	 LearnRA076_T1	 2	 4	 2	 7500	 7500	 1500	 4500	 TrialList	 1	 6	 1	 2255	 2	 2	 1	 3265	 4	 4	 1	 1635	 2	 2
186	20111001	AUS_CMFT	1	 LearnLA004	 ._LearnFA004	 LearnRA004	 ._LearnLA004_T1	 ._LearnFA004_T3	 LearnRA004_T3	 2	 4	 4	 15000	 7500	 3000	 1500	 TrialList	 1	 1	 1	 1344	 2	 2	 1	 1553	 4	 4	 0	 0	 	 
186	20111001	AUS_CMFT	2	 LearnLA011	 ._LearnFA011	 ._LearnRA011	 ._LearnLA011_T2	 ._LearnFA011_T3	 LearnRA011_T3	 3	 4	 4	 1500	 7500	 6000	 4500	 TrialList	 1	 2	 1	 2165	 3	 3	 1	 2060	 4	 4	 1	 1808	 4	 4
186	20111001	AUS_CMFT	3	 LearnLA022	 ._LearnFA022	 LearnRA022	 LearnLA022_T3	 ._LearnFA022_T1	 ._LearnRA022_T1	 4	 2	 2	 7500	 4500	 7500	 7500	 TrialList	 1	 3	 1	 2087	 4	 4	 1	 2050	 2	 2	 0	 0	 	 
186	20111001	AUS_CMFT	4	 LearnLA040	 ._LearnFA040	 ._LearnRA040	 LearnLA040_T2	 ._LearnFA040_T2	 LearnRA040_T1	 3	 3	 2	 7500	 4500	 1500	 7500	 TrialList	 1	 4	 1	 1770	 3	 3	 1	 1423	 3	 3	 1	 2058	 2	 2
186	20111001	AUS_CMFT	5	 LearnLA049	 ._LearnFA049	 LearnRA049	 ._LearnLA049_T3	 ._LearnFA049_T1	 ._LearnRA049_T3	 4	 2	 4	 1500	 7500	 6000	 1500	 TrialList	 1	 5	 1	 1570	 4	 4	 1	 1954	 2	 2	 1	 1815	 4	 4
186	20111001	AUS_CMFT	6	 LearnLA076	 LearnFA076	 LearnRA076	 LearnLA076_T1	 LearnFA076_T3	 LearnRA076_T1	 2	 4	 2	 7500	 7500	 1500	 4500	 TrialList	 1	 6	 0	 2932	 3	 2	 0	 3217	 3	 4	 1	 1869	 2	 2
191	20111101	AUS_CMFT	1	 LearnLA004	 ._LearnFA004	 LearnRA004	 ._LearnLA004_T1	 ._LearnFA004_T3	 LearnRA004_T3	 2	 4	 4	 15000	 7500	 3000	 1500	 TrialList	 1	 1	 1	 2158	 2	 2	 1	 2012	 4	 4	 1	 1530	 4	 4
191	20111101	AUS_CMFT	2	 LearnLA011	 ._LearnFA011	 ._LearnRA011	 ._LearnLA011_T2	 ._LearnFA011_T3	 LearnRA011_T3	 3	 4	 4	 1500	 7500	 6000	 4500	 TrialList	 1	 2	 1	 3202	 3	 3	 1	 1812	 4	 4	 1	 1710	 4	 4
191	20111101	AUS_CMFT	3	 LearnLA022	 ._LearnFA022	 LearnRA022	 LearnLA022_T3	 ._LearnFA022_T1	 ._LearnRA022_T1	 4	 2	 2	 7500	 4500	 7500	 7500	 TrialList	 1	 3	 1	 3826	 4	 4	 1	 1844	 2	 2	 1	 2886	 2	 2
191	20111101	AUS_CMFT	4	 LearnLA040	 ._LearnFA040	 ._LearnRA040	 LearnLA040_T2	 ._LearnFA040_T2	 LearnRA040_T1	 3	 3	 2	 7500	 4500	 1500	 7500	 TrialList	 1	 4	 1	 2499	 3	 3	 1	 1703	 3	 3	 1	 4196	 2	 2
191	20111101	AUS_CMFT	5	 LearnLA049	 ._LearnFA049	 LearnRA049	 ._LearnLA049_T3	 ._LearnFA049_T1	 ._LearnRA049_T3	 4	 2	 4	 1500	 7500	 6000	 1500	 TrialList	 1	 5	 1	 2275	 4	 4	 1	 2446	 2	 2	 1	 1911	 4	 4
191	20111101	AUS_CMFT	6	 LearnLA076	 LearnFA076	 LearnRA076	 LearnLA076_T1	 LearnFA076_T3	 LearnRA076_T1	 2	 4	 2	 7500	 7500	 1500	 4500	 TrialList	 1	 6	 0	 3415	 3	 2	 0	 3815	 3	 4	 1	 2935	 2	 2
193	20120512	AUS_CMFT	1	 LearnLA004	 ._LearnFA004	 LearnRA004	 ._LearnLA004_T1	 ._LearnFA004_T3	 LearnRA004_T3	 2	 4	 4	 15000	 7500	 3000	 1500	 TrialList	 1	 1	 1	 3240	 2	 2	 1	 3831	 4	 4	 0	 0	 	 
193	20120512	AUS_CMFT	2	 LearnLA011	 ._LearnFA011	 ._LearnRA011	 ._LearnLA011_T2	 ._LearnFA011_T3	 LearnRA011_T3	 3	 4	 4	 1500	 7500	 6000	 4500	 TrialList	 1	 2	 1	 3438	 3	 3	 0	 4001	 3	 4	 1	 4067	 4	 4
193	20120512	AUS_CMFT	3	 LearnLA022	 ._LearnFA022	 LearnRA022	 LearnLA022_T3	 ._LearnFA022_T1	 ._LearnRA022_T1	 4	 2	 2	 7500	 4500	 7500	 7500	 TrialList	 1	 3	 1	 3028	 4	 4	 1	 3264	 2	 2	 1	 2885	 2	 2
193	20120512	AUS_CMFT	4	 LearnLA040	 ._LearnFA040	 ._LearnRA040	 LearnLA040_T2	 ._LearnFA040_T2	 LearnRA040_T1	 3	 3	 2	 7500	 4500	 1500	 7500	 TrialList	 1	 4	 1	 3102	 3	 3	 1	 4469	 3	 3	 1	 2008	 2	 2
193	20120512	AUS_CMFT	5	 LearnLA049	 ._LearnFA049	 LearnRA049	 ._LearnLA049_T3	 ._LearnFA049_T1	 ._LearnRA049_T3	 4	 2	 4	 1500	 7500	 6000	 1500	 TrialList	 1	 5	 1	 1923	 4	 4	 1	 1990	 2	 2	 1	 2849	 4	 4
193	20120512	AUS_CMFT	6	 LearnLA076	 LearnFA076	 LearnRA076	 LearnLA076_T1	 LearnFA076_T3	 LearnRA076_T1	 2	 4	 2	 7500	 7500	 1500	 4500	 TrialList	 1	 6	 0	 3259	 4	 2	 1	 3513	 4	 4	 1	 3175	 2	 2
194	20111025	AUS_CMFT	1	 LearnLA004	 ._LearnFA004	 LearnRA004	 ._LearnLA004_T1	 ._LearnFA004_T3	 LearnRA004_T3	 2	 4	 4	 15000	 7500	 3000	 1500	 TrialList	 1	 1	 1	 1999	 2	 2	 1	 2135	 4	 4	 1	 1501	 4	 4
194	20111025	AUS_CMFT	2	 LearnLA011	 ._LearnFA011	 ._LearnRA011	 ._LearnLA011_T2	 ._LearnFA011_T3	 LearnRA011_T3	 3	 4	 4	 1500	 7500	 6000	 4500	 TrialList	 1	 2	 1	 2069	 3	 3	 1	 1831	 4	 4	 1	 2226	 4	 4
194	20111025	AUS_CMFT	3	 LearnLA022	 ._LearnFA022	 LearnRA022	 LearnLA022_T3	 ._LearnFA022_T1	 ._LearnRA022_T1	 4	 2	 2	 7500	 4500	 7500	 7500	 TrialList	 1	 3	 1	 1635	 4	 4	 1	 2816	 2	 2	 1	 3054	 2	 2
194	20111025	AUS_CMFT	4	 LearnLA040	 ._LearnFA040	 ._LearnRA040	 LearnLA040_T2	 ._LearnFA040_T2	 LearnRA040_T1	 3	 3	 2	 7500	 4500	 1500	 7500	 TrialList	 1	 4	 1	 2698	 3	 3	 1	 2555	 3	 3	 1	 2224	 2	 2
194	20111025	AUS_CMFT	5	 LearnLA049	 ._LearnFA049	 LearnRA049	 ._LearnLA049_T3	 ._LearnFA049_T1	 ._LearnRA049_T3	 4	 2	 4	 1500	 7500	 6000	 1500	 TrialList	 1	 5	 1	 2049	 4	 4	 1	 2066	 2	 2	 1	 3633	 4	 4
194	20111025	AUS_CMFT	6	 LearnLA076	 LearnFA076	 LearnRA076	 LearnLA076_T1	 LearnFA076_T3	 LearnRA076_T1	 2	 4	 2	 7500	 7500	 1500	 4500	 TrialList	 1	 6	 1	 1656	 2	 2	 1	 2162	 4	 4	 1	 2576	 2	 2
195	20111130	AUS_CMFT	1	 LearnLA004	 ._LearnFA004	 LearnRA004	 ._LearnLA004_T1	 ._LearnFA004_T3	 LearnRA004_T3	 2	 4	 4	 15000	 7500	 3000	 1500	 TrialList	 1	 1	 1	 2233	 2	 2	 0	 1908	 3	 4	 1	 1975	 4	 4
195	20111130	AUS_CMFT	2	 LearnLA011	 ._LearnFA011	 ._LearnRA011	 ._LearnLA011_T2	 ._LearnFA011_T3	 LearnRA011_T3	 3	 4	 4	 1500	 7500	 6000	 4500	 TrialList	 1	 2	 1	 1922	 3	 3	 0	 3342	 2	 4	 1	 2078	 4	 4
195	20111130	AUS_CMFT	3	 LearnLA022	 ._LearnFA022	 LearnRA022	 LearnLA022_T3	 ._LearnFA022_T1	 ._LearnRA022_T1	 4	 2	 2	 7500	 4500	 7500	 7500	 TrialList	 1	 3	 1	 1686	 4	 4	 1	 3174	 2	 2	 1	 3881	 2	 2
195	20111130	AUS_CMFT	4	 LearnLA040	 ._LearnFA040	 ._LearnRA040	 LearnLA040_T2	 ._LearnFA040_T2	 LearnRA040_T1	 3	 3	 2	 7500	 4500	 1500	 7500	 TrialList	 1	 4	 1	 1772	 3	 3	 1	 1191	 3	 3	 1	 3253	 2	 2
195	20111130	AUS_CMFT	5	 LearnLA049	 ._LearnFA049	 LearnRA049	 ._LearnLA049_T3	 ._LearnFA049_T1	 ._LearnRA049_T3	 4	 2	 4	 1500	 7500	 6000	 1500	 TrialList	 1	 5	 1	 2838	 4	 4	 1	 3875	 2	 2	 1	 1556	 4	 4
195	20111130	AUS_CMFT	6	 LearnLA076	 LearnFA076	 LearnRA076	 LearnLA076_T1	 LearnFA076_T3	 LearnRA076_T1	 2	 4	 2	 7500	 7500	 1500	 4500	 TrialList	 1	 6	 0	 2793	 3	 2	 0	 3261	 2	 4	 1	 3122	 2	 2
196	20111130	AUS_CMFT	1	 LearnLA004	 ._LearnFA004	 LearnRA004	 ._LearnLA004_T1	 ._LearnFA004_T3	 LearnRA004_T3	 2	 4	 4	 15000	 7500	 3000	 1500	 TrialList	 1	 1	 1	 2274	 2	 2	 0	 0	 	 4	 0	 1594	 2	 4
196	20111130	AUS_CMFT	2	 LearnLA011	 ._LearnFA011	 ._LearnRA011	 ._LearnLA011_T2	 ._LearnFA011_T3	 LearnRA011_T3	 3	 4	 4	 1500	 7500	 6000	 4500	 TrialList	 1	 2	 1	 2013	 3	 3	 0	 2124	 2	 4	 1	 2004	 4	 4
196	20111130	AUS_CMFT	3	 LearnLA022	 ._LearnFA022	 LearnRA022	 LearnLA022_T3	 ._LearnFA022_T1	 ._LearnRA022_T1	 4	 2	 2	 7500	 4500	 7500	 7500	 TrialList	 1	 3	 0	 2538	 3	 4	 1	 3310	 2	 2	 1	 2654	 2	 2
196	20111130	AUS_CMFT	4	 LearnLA040	 ._LearnFA040	 ._LearnRA040	 LearnLA040_T2	 ._LearnFA040_T2	 LearnRA040_T1	 3	 3	 2	 7500	 4500	 1500	 7500	 TrialList	 1	 4	 0	 3471	 2	 3	 1	 2555	 3	 3	 1	 2847	 2	 2
196	20111130	AUS_CMFT	5	 LearnLA049	 ._LearnFA049	 LearnRA049	 ._LearnLA049_T3	 ._LearnFA049_T1	 ._LearnRA049_T3	 4	 2	 4	 1500	 7500	 6000	 1500	 TrialList	 1	 5	 1	 3107	 4	 4	 0	 3279	 3	 2	 1	 3417	 4	 4
196	20111130	AUS_CMFT	6	 LearnLA076	 LearnFA076	 LearnRA076	 LearnLA076_T1	 LearnFA076_T3	 LearnRA076_T1	 2	 4	 2	 7500	 7500	 1500	 4500	 TrialList	 1	 6	 0	 2996	 4	 2	 1	 2558	 4	 4	 0	 2012	 3	 2
200	20120208	AUS_CMFT	1	 LearnLA004	 ._LearnFA004	 LearnRA004	 ._LearnLA004_T1	 ._LearnFA004_T3	 LearnRA004_T3	 2	 4	 4	 15000	 7500	 3000	 1500	 TrialList	 1	 1	 1	 3827	 2	 2	 0	 4714	 3	 4	 0	 2745	 2	 4
200	20120208	AUS_CMFT	2	 LearnLA011	 ._LearnFA011	 ._LearnRA011	 ._LearnLA011_T2	 ._LearnFA011_T3	 LearnRA011_T3	 3	 4	 4	 1500	 7500	 6000	 4500	 TrialList	 1	 2	 1	 2070	 3	 3	 0	 2539	 3	 4	 0	 0	 	 
200	20120208	AUS_CMFT	3	 LearnLA022	 ._LearnFA022	 LearnRA022	 LearnLA022_T3	 ._LearnFA022_T1	 ._LearnRA022_T1	 4	 2	 2	 7500	 4500	 7500	 7500	 TrialList	 1	 3	 0	 1208	 2	 4	 0	 1986	 3	 2	 0	 3229	 4	 2
200	20120208	AUS_CMFT	4	 LearnLA040	 ._LearnFA040	 ._LearnRA040	 LearnLA040_T2	 ._LearnFA040_T2	 LearnRA040_T1	 3	 3	 2	 7500	 4500	 1500	 7500	 TrialList	 1	 4	 0	 2995	 2	 3	 1	 1655	 3	 3	 0	 2522	 3	 2
200	20120208	AUS_CMFT	5	 LearnLA049	 ._LearnFA049	 LearnRA049	 ._LearnLA049_T3	 ._LearnFA049_T1	 ._LearnRA049_T3	 4	 2	 4	 1500	 7500	 6000	 1500	 TrialList	 1	 5	 0	 2924	 3	 4	 0	 3265	 4	 2	 0	 0	 	 
200	20120208	AUS_CMFT	6	 LearnLA076	 LearnFA076	 LearnRA076	 LearnLA076_T1	 LearnFA076_T3	 LearnRA076_T1	 2	 4	 2	 7500	 7500	 1500	 4500	 TrialList	 1	 6	 0	 2227	 3	 2	 0	 1815	 2	 4	 1	 2152	 2	 2
203	20111212	AUS_CMFT	1	 LearnLA004	 ._LearnFA004	 LearnRA004	 ._LearnLA004_T1	 ._LearnFA004_T3	 LearnRA004_T3	 2	 4	 4	 15000	 7500	 3000	 1500	 TrialList	 1	 1	 1	 2661	 2	 2	 1	 4476	 4	 4	 0	 2155	 2	 4
203	20111212	AUS_CMFT	2	 LearnLA011	 ._LearnFA011	 ._LearnRA011	 ._LearnLA011_T2	 ._LearnFA011_T3	 LearnRA011_T3	 3	 4	 4	 1500	 7500	 6000	 4500	 TrialList	 1	 2	 0	 3326	 2	 3	 1	 3573	 4	 4	 0	 2762	 2	 4
203	20111212	AUS_CMFT	3	 LearnLA022	 ._LearnFA022	 LearnRA022	 LearnLA022_T3	 ._LearnFA022_T1	 ._LearnRA022_T1	 4	 2	 2	 7500	 4500	 7500	 7500	 TrialList	 1	 3	 1	 1492	 4	 4	 1	 2345	 2	 2	 0	 1785	 4	 2
203	20111212	AUS_CMFT	4	 LearnLA040	 ._LearnFA040	 ._LearnRA040	 LearnLA040_T2	 ._LearnFA040_T2	 LearnRA040_T1	 3	 3	 2	 7500	 4500	 1500	 7500	 TrialList	 1	 4	 1	 1578	 3	 3	 0	 1628	 2	 3	 0	 1479	 4	 2
203	20111212	AUS_CMFT	5	 LearnLA049	 ._LearnFA049	 LearnRA049	 ._LearnLA049_T3	 ._LearnFA049_T1	 ._LearnRA049_T3	 4	 2	 4	 1500	 7500	 6000	 1500	 TrialList	 1	 5	 0	 1554	 3	 4	 0	 2333	 4	 2	 0	 1659	 3	 4
203	20111212	AUS_CMFT	6	 LearnLA076	 LearnFA076	 LearnRA076	 LearnLA076_T1	 LearnFA076_T3	 LearnRA076_T1	 2	 4	 2	 7500	 7500	 1500	 4500	 TrialList	 1	 6	 1	 1925	 2	 2	 0	 3825	 2	 4	 0	 2171	 3	 2
204	20120303	AUS_CMFT	1	 LearnLA004	 ._LearnFA004	 LearnRA004	 ._LearnLA004_T1	 ._LearnFA004_T3	 LearnRA004_T3	 2	 4	 4	 15000	 7500	 3000	 1500	 TrialList	 1	 1	 1	 2213	 2	 2	 1	 2490	 4	 4	 1	 2147	 4	 4
204	20120303	AUS_CMFT	2	 LearnLA011	 ._LearnFA011	 ._LearnRA011	 ._LearnLA011_T2	 ._LearnFA011_T3	 LearnRA011_T3	 3	 4	 4	 1500	 7500	 6000	 4500	 TrialList	 1	 2	 1	 2371	 3	 3	 1	 3025	 4	 4	 0	 3283	 3	 4
204	20120303	AUS_CMFT	3	 LearnLA022	 ._LearnFA022	 LearnRA022	 LearnLA022_T3	 ._LearnFA022_T1	 ._LearnRA022_T1	 4	 2	 2	 7500	 4500	 7500	 7500	 TrialList	 1	 3	 1	 2770	 4	 4	 1	 2893	 2	 2	 1	 2658	 2	 2
204	20120303	AUS_CMFT	4	 LearnLA040	 ._LearnFA040	 ._LearnRA040	 LearnLA040_T2	 ._LearnFA040_T2	 LearnRA040_T1	 3	 3	 2	 7500	 4500	 1500	 7500	 TrialList	 1	 4	 1	 3032	 3	 3	 1	 2657	 3	 3	 0	 2706	 3	 2
204	20120303	AUS_CMFT	5	 LearnLA049	 ._LearnFA049	 LearnRA049	 ._LearnLA049_T3	 ._LearnFA049_T1	 ._LearnRA049_T3	 4	 2	 4	 1500	 7500	 6000	 1500	 TrialList	 1	 5	 1	 3216	 4	 4	 1	 3473	 2	 2	 1	 2722	 4	 4
204	20120303	AUS_CMFT	6	 LearnLA076	 LearnFA076	 LearnRA076	 LearnLA076_T1	 LearnFA076_T3	 LearnRA076_T1	 2	 4	 2	 7500	 7500	 1500	 4500	 TrialList	 1	 6	 1	 2310	 2	 2	 1	 2384	 4	 4	 1	 3514	 2	 2
205	20111207	AUS_CMFT	1	 LearnLA004	 ._LearnFA004	 LearnRA004	 ._LearnLA004_T1	 ._LearnFA004_T3	 LearnRA004_T3	 2	 4	 4	 15000	 7500	 3000	 1500	 TrialList	 1	 1	 1	 1805	 2	 2	 1	 1752	 4	 4	 1	 1731	 4	 4
205	20111207	AUS_CMFT	2	 LearnLA011	 ._LearnFA011	 ._LearnRA011	 ._LearnLA011_T2	 ._LearnFA011_T3	 LearnRA011_T3	 3	 4	 4	 1500	 7500	 6000	 4500	 TrialList	 1	 2	 1	 1557	 3	 3	 1	 1905	 4	 4	 1	 1774	 4	 4
205	20111207	AUS_CMFT	3	 LearnLA022	 ._LearnFA022	 LearnRA022	 LearnLA022_T3	 ._LearnFA022_T1	 ._LearnRA022_T1	 4	 2	 2	 7500	 4500	 7500	 7500	 TrialList	 1	 3	 1	 1671	 4	 4	 1	 2372	 2	 2	 1	 2167	 2	 2
205	20111207	AUS_CMFT	4	 LearnLA040	 ._LearnFA040	 ._LearnRA040	 LearnLA040_T2	 ._LearnFA040_T2	 LearnRA040_T1	 3	 3	 2	 7500	 4500	 1500	 7500	 TrialList	 1	 4	 1	 2239	 3	 3	 1	 1953	 3	 3	 1	 1881	 2	 2
205	20111207	AUS_CMFT	5	 LearnLA049	 ._LearnFA049	 LearnRA049	 ._LearnLA049_T3	 ._LearnFA049_T1	 ._LearnRA049_T3	 4	 2	 4	 1500	 7500	 6000	 1500	 TrialList	 1	 5	 1	 2012	 4	 4	 1	 3280	 2	 2	 1	 1343	 4	 4
205	20111207	AUS_CMFT	6	 LearnLA076	 LearnFA076	 LearnRA076	 LearnLA076_T1	 LearnFA076_T3	 LearnRA076_T1	 2	 4	 2	 7500	 7500	 1500	 4500	 TrialList	 1	 6	 1	 1450	 2	 2	 1	 1560	 4	 4	 1	 2632	 2	 2
206	20111116	AUS_CMFT	1	 LearnLA004	 ._LearnFA004	 LearnRA004	 ._LearnLA004_T1	 ._LearnFA004_T3	 LearnRA004_T3	 2	 4	 4	 15000	 7500	 3000	 1500	 TrialList	 1	 1	 1	 1462	 2	 2	 1	 1255	 4	 4	 1	 1069	 4	 4
206	20111116	AUS_CMFT	2	 LearnLA011	 ._LearnFA011	 ._LearnRA011	 ._LearnLA011_T2	 ._LearnFA011_T3	 LearnRA011_T3	 3	 4	 4	 1500	 7500	 6000	 4500	 TrialList	 1	 2	 1	 1231	 3	 3	 0	 2058	 3	 4	 1	 1157	 4	 4
206	20111116	AUS_CMFT	3	 LearnLA022	 ._LearnFA022	 LearnRA022	 LearnLA022_T3	 ._LearnFA022_T1	 ._LearnRA022_T1	 4	 2	 2	 7500	 4500	 7500	 7500	 TrialList	 1	 3	 1	 1193	 4	 4	 1	 2046	 2	 2	 1	 2310	 2	 2
206	20111116	AUS_CMFT	4	 LearnLA040	 ._LearnFA040	 ._LearnRA040	 LearnLA040_T2	 ._LearnFA040_T2	 LearnRA040_T1	 3	 3	 2	 7500	 4500	 1500	 7500	 TrialList	 1	 4	 1	 2578	 3	 3	 1	 959	 3	 3	 1	 1938	 2	 2
206	20111116	AUS_CMFT	5	 LearnLA049	 ._LearnFA049	 LearnRA049	 ._LearnLA049_T3	 ._LearnFA049_T1	 ._LearnRA049_T3	 4	 2	 4	 1500	 7500	 6000	 1500	 TrialList	 1	 5	 1	 1262	 4	 4	 1	 2821	 2	 2	 1	 1583	 4	 4
206	20111116	AUS_CMFT	6	 LearnLA076	 LearnFA076	 LearnRA076	 LearnLA076_T1	 LearnFA076_T3	 LearnRA076_T1	 2	 4	 2	 7500	 7500	 1500	 4500	 TrialList	 1	 6	 1	 2178	 2	 2	 1	 2265	 4	 4	 1	 2106	 2	 2
207	20120222	AUS_CMFT	1	 LearnLA004	 ._LearnFA004	 LearnRA004	 ._LearnLA004_T1	 ._LearnFA004_T3	 LearnRA004_T3	 2	 4	 4	 15000	 7500	 3000	 1500	 TrialList	 1	 1	 1	 2132	 2	 2	 0	 2068	 2	 4	 1	 2106	 4	 4
207	20120222	AUS_CMFT	2	 LearnLA011	 ._LearnFA011	 ._LearnRA011	 ._LearnLA011_T2	 ._LearnFA011_T3	 LearnRA011_T3	 3	 4	 4	 1500	 7500	 6000	 4500	 TrialList	 1	 2	 1	 2671	 3	 3	 1	 3910	 4	 4	 1	 3536	 4	 4
207	20120222	AUS_CMFT	3	 LearnLA022	 ._LearnFA022	 LearnRA022	 LearnLA022_T3	 ._LearnFA022_T1	 ._LearnRA022_T1	 4	 2	 2	 7500	 4500	 7500	 7500	 TrialList	 1	 3	 1	 1493	 4	 4	 1	 3266	 2	 2	 0	 0	 	 
207	20120222	AUS_CMFT	4	 LearnLA040	 ._LearnFA040	 ._LearnRA040	 LearnLA040_T2	 ._LearnFA040_T2	 LearnRA040_T1	 3	 3	 2	 7500	 4500	 1500	 7500	 TrialList	 1	 4	 1	 2636	 3	 3	 1	 1838	 3	 3	 1	 3047	 2	 2
207	20120222	AUS_CMFT	5	 LearnLA049	 ._LearnFA049	 LearnRA049	 ._LearnLA049_T3	 ._LearnFA049_T1	 ._LearnRA049_T3	 4	 2	 4	 1500	 7500	 6000	 1500	 TrialList	 1	 5	 1	 1952	 4	 4	 0	 2679	 3	 2	 0	 3991	 3	 4
207	20120222	AUS_CMFT	6	 LearnLA076	 LearnFA076	 LearnRA076	 LearnLA076_T1	 LearnFA076_T3	 LearnRA076_T1	 2	 4	 2	 7500	 7500	 1500	 4500	 TrialList	 1	 6	 1	 2771	 2	 2	 1	 4106	 4	 4	 1	 2297	 2	 2
210	20120204	AUS_CMFT	1	 LearnLA004	 ._LearnFA004	 LearnRA004	 ._LearnLA004_T1	 ._LearnFA004_T3	 LearnRA004_T3	 2	 4	 4	 15000	 7500	 3000	 1500	 TrialList	 1	 1	 0	 1622	 4	 2	 0	 2170	 3	 4	 1	 1251	 4	 4
210	20120204	AUS_CMFT	2	 LearnLA011	 ._LearnFA011	 ._LearnRA011	 ._LearnLA011_T2	 ._LearnFA011_T3	 LearnRA011_T3	 3	 4	 4	 1500	 7500	 6000	 4500	 TrialList	 1	 2	 0	 2024	 2	 3	 1	 2141	 4	 4	 0	 1690	 2	 4
210	20120204	AUS_CMFT	3	 LearnLA022	 ._LearnFA022	 LearnRA022	 LearnLA022_T3	 ._LearnFA022_T1	 ._LearnRA022_T1	 4	 2	 2	 7500	 4500	 7500	 7500	 TrialList	 1	 3	 1	 2180	 4	 4	 1	 1967	 2	 2	 1	 1543	 2	 2
210	20120204	AUS_CMFT	4	 LearnLA040	 ._LearnFA040	 ._LearnRA040	 LearnLA040_T2	 ._LearnFA040_T2	 LearnRA040_T1	 3	 3	 2	 7500	 4500	 1500	 7500	 TrialList	 1	 4	 1	 1332	 3	 3	 1	 836	 3	 3	 1	 1532	 2	 2
210	20120204	AUS_CMFT	5	 LearnLA049	 ._LearnFA049	 LearnRA049	 ._LearnLA049_T3	 ._LearnFA049_T1	 ._LearnRA049_T3	 4	 2	 4	 1500	 7500	 6000	 1500	 TrialList	 1	 5	 1	 1423	 4	 4	 0	 2021	 3	 2	 1	 1458	 4	 4
210	20120204	AUS_CMFT	6	 LearnLA076	 LearnFA076	 LearnRA076	 LearnLA076_T1	 LearnFA076_T3	 LearnRA076_T1	 2	 4	 2	 7500	 7500	 1500	 4500	 TrialList	 1	 6	 0	 1923	 3	 2	 1	 2140	 4	 4	 0	 1238	 4	 2
211	20120331	AUS_CMFT	1	 LearnLA004	 ._LearnFA004	 LearnRA004	 ._LearnLA004_T1	 ._LearnFA004_T3	 LearnRA004_T3	 2	 4	 4	 15000	 7500	 3000	 1500	 TrialList	 1	 1	 1	 2523	 2	 2	 1	 1999	 4	 4	 1	 1764	 4	 4
211	20120331	AUS_CMFT	2	 LearnLA011	 ._LearnFA011	 ._LearnRA011	 ._LearnLA011_T2	 ._LearnFA011_T3	 LearnRA011_T3	 3	 4	 4	 1500	 7500	 6000	 4500	 TrialList	 1	 2	 1	 2809	 3	 3	 0	 0	 	 4	 1	 1758	 4	 4
211	20120331	AUS_CMFT	3	 LearnLA022	 ._LearnFA022	 LearnRA022	 LearnLA022_T3	 ._LearnFA022_T1	 ._LearnRA022_T1	 4	 2	 2	 7500	 4500	 7500	 7500	 TrialList	 1	 3	 1	 2524	 4	 4	 1	 1726	 2	 2	 1	 2204	 2	 2
211	20120331	AUS_CMFT	4	 LearnLA040	 ._LearnFA040	 ._LearnRA040	 LearnLA040_T2	 ._LearnFA040_T2	 LearnRA040_T1	 3	 3	 2	 7500	 4500	 1500	 7500	 TrialList	 1	 4	 0	 3122	 2	 3	 1	 3215	 3	 3	 1	 2185	 2	 2
211	20120331	AUS_CMFT	5	 LearnLA049	 ._LearnFA049	 LearnRA049	 ._LearnLA049_T3	 ._LearnFA049_T1	 ._LearnRA049_T3	 4	 2	 4	 1500	 7500	 6000	 1500	 TrialList	 1	 5	 1	 1452	 4	 4	 1	 1834	 2	 2	 1	 2619	 4	 4
211	20120331	AUS_CMFT	6	 LearnLA076	 LearnFA076	 LearnRA076	 LearnLA076_T1	 LearnFA076_T3	 LearnRA076_T1	 2	 4	 2	 7500	 7500	 1500	 4500	 TrialList	 1	 6	 1	 2307	 2	 2	 0	 3345	 3	 4	 0	 3852	 3	 2
213	20120929	AUS_CMFT	1	 LearnLA004	 ._LearnFA004	 LearnRA004	 ._LearnLA004_T1	 ._LearnFA004_T3	 LearnRA004_T3	 2	 4	 4	 15000	 7500	 3000	 1500	 TrialList	 1	 1	 1	 1634	 2	 2	 1	 2718	 4	 4	 0	 3961	 2	 4
213	20120929	AUS_CMFT	2	 LearnLA011	 ._LearnFA011	 ._LearnRA011	 ._LearnLA011_T2	 ._LearnFA011_T3	 LearnRA011_T3	 3	 4	 4	 1500	 7500	 6000	 4500	 TrialList	 1	 2	 1	 2712	 3	 3	 0	 3158	 2	 4	 1	 2575	 4	 4
213	20120929	AUS_CMFT	3	 LearnLA022	 ._LearnFA022	 LearnRA022	 LearnLA022_T3	 ._LearnFA022_T1	 ._LearnRA022_T1	 4	 2	 2	 7500	 4500	 7500	 7500	 TrialList	 1	 3	 1	 3678	 4	 4	 1	 3625	 2	 2	 0	 2375	 4	 2
213	20120929	AUS_CMFT	4	 LearnLA040	 ._LearnFA040	 ._LearnRA040	 LearnLA040_T2	 ._LearnFA040_T2	 LearnRA040_T1	 3	 3	 2	 7500	 4500	 1500	 7500	 TrialList	 1	 4	 1	 2280	 3	 3	 1	 3393	 3	 3	 1	 2296	 2	 2
213	20120929	AUS_CMFT	5	 LearnLA049	 ._LearnFA049	 LearnRA049	 ._LearnLA049_T3	 ._LearnFA049_T1	 ._LearnRA049_T3	 4	 2	 4	 1500	 7500	 6000	 1500	 TrialList	 1	 5	 1	 2581	 4	 4	 0	 2540	 3	 2	 1	 2467	 4	 4
213	20120929	AUS_CMFT	6	 LearnLA076	 LearnFA076	 LearnRA076	 LearnLA076_T1	 LearnFA076_T3	 LearnRA076_T1	 2	 4	 2	 7500	 7500	 1500	 4500	 TrialList	 1	 6	 1	 2138	 2	 2	 0	 1809	 3	 4	 1	 3959	 2	 2
215	20120609	AUS_CMFT	1	 LearnLA004	 ._LearnFA004	 LearnRA004	 ._LearnLA004_T1	 ._LearnFA004_T3	 LearnRA004_T3	 2	 4	 4	 15000	 7500	 3000	 1500	 TrialList	 1	 1	 1	 1443	 2	 2	 1	 1552	 4	 4	 1	 1241	 4	 4
215	20120609	AUS_CMFT	2	 LearnLA011	 ._LearnFA011	 ._LearnRA011	 ._LearnLA011_T2	 ._LearnFA011_T3	 LearnRA011_T3	 3	 4	 4	 1500	 7500	 6000	 4500	 TrialList	 1	 2	 1	 1248	 3	 3	 1	 2714	 4	 4	 1	 1533	 4	 4
215	20120609	AUS_CMFT	3	 LearnLA022	 ._LearnFA022	 LearnRA022	 LearnLA022_T3	 ._LearnFA022_T1	 ._LearnRA022_T1	 4	 2	 2	 7500	 4500	 7500	 7500	 TrialList	 1	 3	 1	 1597	 4	 4	 1	 2114	 2	 2	 1	 2131	 2	 2
215	20120609	AUS_CMFT	4	 LearnLA040	 ._LearnFA040	 ._LearnRA040	 LearnLA040_T2	 ._LearnFA040_T2	 LearnRA040_T1	 3	 3	 2	 7500	 4500	 1500	 7500	 TrialList	 1	 4	 1	 2525	 3	 3	 1	 2302	 3	 3	 1	 2534	 2	 2
215	20120609	AUS_CMFT	5	 LearnLA049	 ._LearnFA049	 LearnRA049	 ._LearnLA049_T3	 ._LearnFA049_T1	 ._LearnRA049_T3	 4	 2	 4	 1500	 7500	 6000	 1500	 TrialList	 1	 5	 1	 1634	 4	 4	 1	 1615	 2	 2	 1	 2415	 4	 4
215	20120609	AUS_CMFT	6	 LearnLA076	 LearnFA076	 LearnRA076	 LearnLA076_T1	 LearnFA076_T3	 LearnRA076_T1	 2	 4	 2	 7500	 7500	 1500	 4500	 TrialList	 1	 6	 1	 1798	 2	 2	 1	 1524	 4	 4	 1	 2278	 2	 2
216	20120126	AUS_CMFT	1	 LearnLA004	 ._LearnFA004	 LearnRA004	 ._LearnLA004_T1	 ._LearnFA004_T3	 LearnRA004_T3	 2	 4	 4	 15000	 7500	 3000	 1500	 TrialList	 1	 1	 1	 2192	 2	 2	 1	 2930	 4	 4	 1	 2804	 4	 4
216	20120126	AUS_CMFT	2	 LearnLA011	 ._LearnFA011	 ._LearnRA011	 ._LearnLA011_T2	 ._LearnFA011_T3	 LearnRA011_T3	 3	 4	 4	 1500	 7500	 6000	 4500	 TrialList	 1	 2	 1	 2656	 3	 3	 1	 2374	 4	 4	 1	 4141	 4	 4
216	20120126	AUS_CMFT	3	 LearnLA022	 ._LearnFA022	 LearnRA022	 LearnLA022_T3	 ._LearnFA022_T1	 ._LearnRA022_T1	 4	 2	 2	 7500	 4500	 7500	 7500	 TrialList	 1	 3	 1	 4928	 4	 4	 1	 4563	 2	 2	 1	 3016	 2	 2
216	20120126	AUS_CMFT	4	 LearnLA040	 ._LearnFA040	 ._LearnRA040	 LearnLA040_T2	 ._LearnFA040_T2	 LearnRA040_T1	 3	 3	 2	 7500	 4500	 1500	 7500	 TrialList	 1	 4	 0	 0	 	 3	 1	 1727	 3	 3	 0	 4082	 3	 2
216	20120126	AUS_CMFT	5	 LearnLA049	 ._LearnFA049	 LearnRA049	 ._LearnLA049_T3	 ._LearnFA049_T1	 ._LearnRA049_T3	 4	 2	 4	 1500	 7500	 6000	 1500	 TrialList	 1	 5	 0	 4089	 3	 4	 0	 2802	 3	 2	 1	 3398	 4	 4
216	20120126	AUS_CMFT	6	 LearnLA076	 LearnFA076	 LearnRA076	 LearnLA076_T1	 LearnFA076_T3	 LearnRA076_T1	 2	 4	 2	 7500	 7500	 1500	 4500	 TrialList	 1	 6	 0	 0	 	 2	 0	 0	 	 4	 0	 1706	 3	 2
217	20120609	AUS_CMFT	1	 LearnLA004	 ._LearnFA004	 LearnRA004	 ._LearnLA004_T1	 ._LearnFA004_T3	 LearnRA004_T3	 2	 4	 4	 15000	 7500	 3000	 1500	 TrialList	 1	 1	 1	 3024	 2	 2	 1	 4698	 4	 4	 1	 2129	 4	 4
217	20120609	AUS_CMFT	2	 LearnLA011	 ._LearnFA011	 ._LearnRA011	 ._LearnLA011_T2	 ._LearnFA011_T3	 LearnRA011_T3	 3	 4	 4	 1500	 7500	 6000	 4500	 TrialList	 1	 2	 1	 2139	 3	 3	 0	 1747	 3	 4	 1	 1843	 4	 4
217	20120609	AUS_CMFT	3	 LearnLA022	 ._LearnFA022	 LearnRA022	 LearnLA022_T3	 ._LearnFA022_T1	 ._LearnRA022_T1	 4	 2	 2	 7500	 4500	 7500	 7500	 TrialList	 1	 3	 1	 3411	 4	 4	 1	 1900	 2	 2	 0	 2638	 3	 2
217	20120609	AUS_CMFT	4	 LearnLA040	 ._LearnFA040	 ._LearnRA040	 LearnLA040_T2	 ._LearnFA040_T2	 LearnRA040_T1	 3	 3	 2	 7500	 4500	 1500	 7500	 TrialList	 1	 4	 1	 2053	 3	 3	 1	 2307	 3	 3	 0	 3374	 4	 2
217	20120609	AUS_CMFT	5	 LearnLA049	 ._LearnFA049	 LearnRA049	 ._LearnLA049_T3	 ._LearnFA049_T1	 ._LearnRA049_T3	 4	 2	 4	 1500	 7500	 6000	 1500	 TrialList	 1	 5	 1	 1829	 4	 4	 0	 1697	 3	 2	 1	 1945	 4	 4
217	20120609	AUS_CMFT	6	 LearnLA076	 LearnFA076	 LearnRA076	 LearnLA076_T1	 LearnFA076_T3	 LearnRA076_T1	 2	 4	 2	 7500	 7500	 1500	 4500	 TrialList	 1	 6	 0	 2479	 4	 2	 0	 1684	 3	 4	 0	 2060	 3	 2
218	20120215	AUS_CMFT	1	 LearnLA004	 ._LearnFA004	 LearnRA004	 ._LearnLA004_T1	 ._LearnFA004_T3	 LearnRA004_T3	 2	 4	 4	 15000	 7500	 3000	 1500	 TrialList	 1	 1	 1	 1453	 2	 2	 1	 1652	 4	 4	 1	 1697	 4	 4
218	20120215	AUS_CMFT	2	 LearnLA011	 ._LearnFA011	 ._LearnRA011	 ._LearnLA011_T2	 ._LearnFA011_T3	 LearnRA011_T3	 3	 4	 4	 1500	 7500	 6000	 4500	 TrialList	 1	 2	 1	 836	 3	 3	 1	 2714	 4	 4	 1	 1575	 4	 4
218	20120215	AUS_CMFT	3	 LearnLA022	 ._LearnFA022	 LearnRA022	 LearnLA022_T3	 ._LearnFA022_T1	 ._LearnRA022_T1	 4	 2	 2	 7500	 4500	 7500	 7500	 TrialList	 1	 3	 1	 2119	 4	 4	 1	 1905	 2	 2	 1	 2735	 2	 2
218	20120215	AUS_CMFT	4	 LearnLA040	 ._LearnFA040	 ._LearnRA040	 LearnLA040_T2	 ._LearnFA040_T2	 LearnRA040_T1	 3	 3	 2	 7500	 4500	 1500	 7500	 TrialList	 1	 4	 1	 1015	 3	 3	 1	 1839	 3	 3	 1	 1321	 2	 2
218	20120215	AUS_CMFT	5	 LearnLA049	 ._LearnFA049	 LearnRA049	 ._LearnLA049_T3	 ._LearnFA049_T1	 ._LearnRA049_T3	 4	 2	 4	 1500	 7500	 6000	 1500	 TrialList	 1	 5	 1	 1346	 4	 4	 1	 1700	 2	 2	 1	 1796	 4	 4
218	20120215	AUS_CMFT	6	 LearnLA076	 LearnFA076	 LearnRA076	 LearnLA076_T1	 LearnFA076_T3	 LearnRA076_T1	 2	 4	 2	 7500	 7500	 1500	 4500	 TrialList	 1	 6	 1	 1137	 2	 2	 1	 3584	 4	 4	 1	 1601	 2	 2
223	20120317	AUS_CMFT	1	 LearnLA004	 ._LearnFA004	 LearnRA004	 ._LearnLA004_T1	 ._LearnFA004_T3	 LearnRA004_T3	 2	 4	 4	 15000	 7500	 3000	 1500	 TrialList	 1	 1	 1	 2903	 2	 2	 1	 3585	 4	 4	 1	 1698	 4	 4
223	20120317	AUS_CMFT	2	 LearnLA011	 ._LearnFA011	 ._LearnRA011	 ._LearnLA011_T2	 ._LearnFA011_T3	 LearnRA011_T3	 3	 4	 4	 1500	 7500	 6000	 4500	 TrialList	 1	 2	 1	 2557	 3	 3	 1	 2925	 4	 4	 1	 2185	 4	 4
223	20120317	AUS_CMFT	3	 LearnLA022	 ._LearnFA022	 LearnRA022	 LearnLA022_T3	 ._LearnFA022_T1	 ._LearnRA022_T1	 4	 2	 2	 7500	 4500	 7500	 7500	 TrialList	 1	 3	 1	 961	 4	 4	 1	 3514	 2	 2	 1	 1680	 2	 2
223	20120317	AUS_CMFT	4	 LearnLA040	 ._LearnFA040	 ._LearnRA040	 LearnLA040_T2	 ._LearnFA040_T2	 LearnRA040_T1	 3	 3	 2	 7500	 4500	 1500	 7500	 TrialList	 1	 4	 0	 3197	 2	 3	 1	 2503	 3	 3	 1	 2030	 2	 2
223	20120317	AUS_CMFT	5	 LearnLA049	 ._LearnFA049	 LearnRA049	 ._LearnLA049_T3	 ._LearnFA049_T1	 ._LearnRA049_T3	 4	 2	 4	 1500	 7500	 6000	 1500	 TrialList	 1	 5	 1	 1958	 4	 4	 1	 4132	 2	 2	 0	 0	 	 
223	20120317	AUS_CMFT	6	 LearnLA076	 LearnFA076	 LearnRA076	 LearnLA076_T1	 LearnFA076_T3	 LearnRA076_T1	 2	 4	 2	 7500	 7500	 1500	 4500	 TrialList	 1	 6	 0	 1845	 4	 2	 0	 3476	 2	 4	 0	 3899	 4	 2
225	20120619	AUS_CMFT	1	 LearnLA004	 ._LearnFA004	 LearnRA004	 ._LearnLA004_T1	 ._LearnFA004_T3	 LearnRA004_T3	 2	 4	 4	 15000	 7500	 3000	 1500	 TrialList	 1	 1	 1	 1943	 2	 2	 1	 1993	 4	 4	 1	 2502	 4	 4
225	20120619	AUS_CMFT	2	 LearnLA011	 ._LearnFA011	 ._LearnRA011	 ._LearnLA011_T2	 ._LearnFA011_T3	 LearnRA011_T3	 3	 4	 4	 1500	 7500	 6000	 4500	 TrialList	 1	 2	 1	 1835	 3	 3	 0	 3667	 3	 4	 1	 2410	 4	 4
225	20120619	AUS_CMFT	3	 LearnLA022	 ._LearnFA022	 LearnRA022	 LearnLA022_T3	 ._LearnFA022_T1	 ._LearnRA022_T1	 4	 2	 2	 7500	 4500	 7500	 7500	 TrialList	 1	 3	 1	 3677	 4	 4	 1	 2625	 2	 2	 1	 2693	 2	 2
225	20120619	AUS_CMFT	4	 LearnLA040	 ._LearnFA040	 ._LearnRA040	 LearnLA040_T2	 ._LearnFA040_T2	 LearnRA040_T1	 3	 3	 2	 7500	 4500	 1500	 7500	 TrialList	 1	 4	 1	 1850	 3	 3	 1	 4047	 3	 3	 1	 2210	 2	 2
225	20120619	AUS_CMFT	5	 LearnLA049	 ._LearnFA049	 LearnRA049	 ._LearnLA049_T3	 ._LearnFA049_T1	 ._LearnRA049_T3	 4	 2	 4	 1500	 7500	 6000	 1500	 TrialList	 1	 5	 1	 1696	 4	 4	 1	 3338	 2	 2	 1	 2615	 4	 4
225	20120619	AUS_CMFT	6	 LearnLA076	 LearnFA076	 LearnRA076	 LearnLA076_T1	 LearnFA076_T3	 LearnRA076_T1	 2	 4	 2	 7500	 7500	 1500	 4500	 TrialList	 1	 6	 1	 3970	 2	 2	 1	 2104	 4	 4	 1	 2621	 2	 2
226	20120331	AUS_CMFT	1	 LearnLA004	 ._LearnFA004	 LearnRA004	 ._LearnLA004_T1	 ._LearnFA004_T3	 LearnRA004_T3	 2	 4	 4	 15000	 7500	 3000	 1500	 TrialList	 1	 1	 1	 2900	 2	 2	 1	 2356	 4	 4	 1	 2615	 4	 4
226	20120331	AUS_CMFT	2	 LearnLA011	 ._LearnFA011	 ._LearnRA011	 ._LearnLA011_T2	 ._LearnFA011_T3	 LearnRA011_T3	 3	 4	 4	 1500	 7500	 6000	 4500	 TrialList	 1	 2	 1	 2818	 3	 3	 1	 3554	 4	 4	 1	 2955	 4	 4
226	20120331	AUS_CMFT	3	 LearnLA022	 ._LearnFA022	 LearnRA022	 LearnLA022_T3	 ._LearnFA022_T1	 ._LearnRA022_T1	 4	 2	 2	 7500	 4500	 7500	 7500	 TrialList	 1	 3	 1	 2801	 4	 4	 1	 3418	 2	 2	 1	 2705	 2	 2
226	20120331	AUS_CMFT	4	 LearnLA040	 ._LearnFA040	 ._LearnRA040	 LearnLA040_T2	 ._LearnFA040_T2	 LearnRA040_T1	 3	 3	 2	 7500	 4500	 1500	 7500	 TrialList	 1	 4	 1	 2891	 3	 3	 1	 3014	 3	 3	 1	 4077	 2	 2
226	20120331	AUS_CMFT	5	 LearnLA049	 ._LearnFA049	 LearnRA049	 ._LearnLA049_T3	 ._LearnFA049_T1	 ._LearnRA049_T3	 4	 2	 4	 1500	 7500	 6000	 1500	 TrialList	 1	 5	 1	 2279	 4	 4	 1	 2431	 2	 2	 1	 1650	 4	 4
226	20120331	AUS_CMFT	6	 LearnLA076	 LearnFA076	 LearnRA076	 LearnLA076_T1	 LearnFA076_T3	 LearnRA076_T1	 2	 4	 2	 7500	 7500	 1500	 4500	 TrialList	 1	 6	 1	 2441	 2	 2	 1	 3723	 4	 4	 0	 0	 	 
227	20121126	AUS_CMFT	1	 LearnLA004	 ._LearnFA004	 LearnRA004	 ._LearnLA004_T1	 ._LearnFA004_T3	 LearnRA004_T3	 2	 4	 4	 15000	 7500	 3000	 1500	 TrialList	 1	 1	 1	 1823	 2	 2	 1	 1500	 4	 4	 1	 1200	 4	 4
227	20121126	AUS_CMFT	2	 LearnLA011	 ._LearnFA011	 ._LearnRA011	 ._LearnLA011_T2	 ._LearnFA011_T3	 LearnRA011_T3	 3	 4	 4	 1500	 7500	 6000	 4500	 TrialList	 1	 2	 1	 880	 3	 3	 0	 2065	 2	 4	 1	 1779	 4	 4
227	20121126	AUS_CMFT	3	 LearnLA022	 ._LearnFA022	 LearnRA022	 LearnLA022_T3	 ._LearnFA022_T1	 ._LearnRA022_T1	 4	 2	 2	 7500	 4500	 7500	 7500	 TrialList	 1	 3	 1	 2625	 4	 4	 1	 1349	 2	 2	 1	 1561	 2	 2
227	20121126	AUS_CMFT	4	 LearnLA040	 ._LearnFA040	 ._LearnRA040	 LearnLA040_T2	 ._LearnFA040_T2	 LearnRA040_T1	 3	 3	 2	 7500	 4500	 1500	 7500	 TrialList	 1	 4	 1	 1037	 3	 3	 1	 914	 3	 3	 1	 1565	 2	 2
227	20121126	AUS_CMFT	5	 LearnLA049	 ._LearnFA049	 LearnRA049	 ._LearnLA049_T3	 ._LearnFA049_T1	 ._LearnRA049_T3	 4	 2	 4	 1500	 7500	 6000	 1500	 TrialList	 1	 5	 1	 1865	 4	 4	 1	 1755	 2	 2	 1	 1635	 4	 4
227	20121126	AUS_CMFT	6	 LearnLA076	 LearnFA076	 LearnRA076	 LearnLA076_T1	 LearnFA076_T3	 LearnRA076_T1	 2	 4	 2	 7500	 7500	 1500	 4500	 TrialList	 1	 6	 1	 1159	 2	 2	 1	 2588	 4	 4	 1	 1860	 2	 2
228	20120512	AUS_CMFT	1	 LearnLA004	 ._LearnFA004	 LearnRA004	 ._LearnLA004_T1	 ._LearnFA004_T3	 LearnRA004_T3	 2	 4	 4	 15000	 7500	 3000	 1500	 TrialList	 1	 1	 0	 2906	 4	 2	 0	 0	 	 4	 0	 2049	 2	 4
228	20120512	AUS_CMFT	2	 LearnLA011	 ._LearnFA011	 ._LearnRA011	 ._LearnLA011_T2	 ._LearnFA011_T3	 LearnRA011_T3	 3	 4	 4	 1500	 7500	 6000	 4500	 TrialList	 1	 2	 0	 2571	 2	 3	 0	 3007	 2	 4	 1	 1990	 4	 4
228	20120512	AUS_CMFT	3	 LearnLA022	 ._LearnFA022	 LearnRA022	 LearnLA022_T3	 ._LearnFA022_T1	 ._LearnRA022_T1	 4	 2	 2	 7500	 4500	 7500	 7500	 TrialList	 1	 3	 0	 4079	 2	 4	 1	 2949	 2	 2	 0	 2807	 3	 2
228	20120512	AUS_CMFT	4	 LearnLA040	 ._LearnFA040	 ._LearnRA040	 LearnLA040_T2	 ._LearnFA040_T2	 LearnRA040_T1	 3	 3	 2	 7500	 4500	 1500	 7500	 TrialList	 1	 4	 1	 2861	 3	 3	 1	 1726	 3	 3	 0	 2649	 3	 2
228	20120512	AUS_CMFT	5	 LearnLA049	 ._LearnFA049	 LearnRA049	 ._LearnLA049_T3	 ._LearnFA049_T1	 ._LearnRA049_T3	 4	 2	 4	 1500	 7500	 6000	 1500	 TrialList	 1	 5	 1	 2445	 4	 4	 0	 3286	 3	 2	 1	 4319	 4	 4
228	20120512	AUS_CMFT	6	 LearnLA076	 LearnFA076	 LearnRA076	 LearnLA076_T1	 LearnFA076_T3	 LearnRA076_T1	 2	 4	 2	 7500	 7500	 1500	 4500	 TrialList	 1	 6	 1	 1973	 2	 2	 0	 4209	 3	 4	 0	 2216	 4	 2
229	20120425	AUS_CMFT	1	 LearnLA004	 ._LearnFA004	 LearnRA004	 ._LearnLA004_T1	 ._LearnFA004_T3	 LearnRA004_T3	 2	 4	 4	 15000	 7500	 3000	 1500	 TrialList	 1	 1	 1	 1691	 2	 2	 1	 1833	 4	 4	 1	 2075	 4	 4
229	20120425	AUS_CMFT	2	 LearnLA011	 ._LearnFA011	 ._LearnRA011	 ._LearnLA011_T2	 ._LearnFA011_T3	 LearnRA011_T3	 3	 4	 4	 1500	 7500	 6000	 4500	 TrialList	 1	 2	 1	 2069	 3	 3	 1	 2711	 4	 4	 1	 4203	 4	 4
229	20120425	AUS_CMFT	3	 LearnLA022	 ._LearnFA022	 LearnRA022	 LearnLA022_T3	 ._LearnFA022_T1	 ._LearnRA022_T1	 4	 2	 2	 7500	 4500	 7500	 7500	 TrialList	 1	 3	 1	 3379	 4	 4	 1	 2441	 2	 2	 1	 1947	 2	 2
229	20120425	AUS_CMFT	4	 LearnLA040	 ._LearnFA040	 ._LearnRA040	 LearnLA040_T2	 ._LearnFA040_T2	 LearnRA040_T1	 3	 3	 2	 7500	 4500	 1500	 7500	 TrialList	 1	 4	 1	 1811	 3	 3	 1	 1600	 3	 3	 1	 1555	 2	 2
229	20120425	AUS_CMFT	5	 LearnLA049	 ._LearnFA049	 LearnRA049	 ._LearnLA049_T3	 ._LearnFA049_T1	 ._LearnRA049_T3	 4	 2	 4	 1500	 7500	 6000	 1500	 TrialList	 1	 5	 1	 2551	 4	 4	 1	 2086	 2	 2	 1	 2017	 4	 4
229	20120425	AUS_CMFT	6	 LearnLA076	 LearnFA076	 LearnRA076	 LearnLA076_T1	 LearnFA076_T3	 LearnRA076_T1	 2	 4	 2	 7500	 7500	 1500	 4500	 TrialList	 1	 6	 1	 1590	 2	 2	 1	 2574	 4	 4	 1	 2619	 2	 2
231	20120424	AUS_CMFT	1	 LearnLA004	 ._LearnFA004	 LearnRA004	 ._LearnLA004_T1	 ._LearnFA004_T3	 LearnRA004_T3	 2	 4	 4	 15000	 7500	 3000	 1500	 TrialList	 1	 1	 1	 1181	 2	 2	 1	 1421	 4	 4	 1	 1421	 4	 4
231	20120424	AUS_CMFT	2	 LearnLA011	 ._LearnFA011	 ._LearnRA011	 ._LearnLA011_T2	 ._LearnFA011_T3	 LearnRA011_T3	 3	 4	 4	 1500	 7500	 6000	 4500	 TrialList	 1	 2	 1	 1349	 3	 3	 1	 2426	 4	 4	 1	 2670	 4	 4
231	20120424	AUS_CMFT	3	 LearnLA022	 ._LearnFA022	 LearnRA022	 LearnLA022_T3	 ._LearnFA022_T1	 ._LearnRA022_T1	 4	 2	 2	 7500	 4500	 7500	 7500	 TrialList	 1	 3	 1	 1685	 4	 4	 1	 1993	 2	 2	 1	 2057	 2	 2
231	20120424	AUS_CMFT	4	 LearnLA040	 ._LearnFA040	 ._LearnRA040	 LearnLA040_T2	 ._LearnFA040_T2	 LearnRA040_T1	 3	 3	 2	 7500	 4500	 1500	 7500	 TrialList	 1	 4	 1	 2296	 3	 3	 1	 2867	 3	 3	 1	 2063	 2	 2
231	20120424	AUS_CMFT	5	 LearnLA049	 ._LearnFA049	 LearnRA049	 ._LearnLA049_T3	 ._LearnFA049_T1	 ._LearnRA049_T3	 4	 2	 4	 1500	 7500	 6000	 1500	 TrialList	 1	 5	 1	 1683	 4	 4	 1	 2002	 2	 2	 1	 1962	 4	 4
231	20120424	AUS_CMFT	6	 LearnLA076	 LearnFA076	 LearnRA076	 LearnLA076_T1	 LearnFA076_T3	 LearnRA076_T1	 2	 4	 2	 7500	 7500	 1500	 4500	 TrialList	 1	 6	 1	 1128	 2	 2	 1	 1307	 4	 4	 1	 1099	 2	 2
232	20120424	AUS_CMFT	1	 LearnLA004	 ._LearnFA004	 LearnRA004	 ._LearnLA004_T1	 ._LearnFA004_T3	 LearnRA004_T3	 2	 4	 4	 15000	 7500	 3000	 1500	 TrialList	 1	 1	 0	 2048	 4	 2	 0	 1387	 3	 4	 0	 0	 	 
232	20120424	AUS_CMFT	2	 LearnLA011	 ._LearnFA011	 ._LearnRA011	 ._LearnLA011_T2	 ._LearnFA011_T3	 LearnRA011_T3	 3	 4	 4	 1500	 7500	 6000	 4500	 TrialList	 1	 2	 1	 1803	 3	 3	 1	 3043	 4	 4	 1	 1645	 4	 4
232	20120424	AUS_CMFT	3	 LearnLA022	 ._LearnFA022	 LearnRA022	 LearnLA022_T3	 ._LearnFA022_T1	 ._LearnRA022_T1	 4	 2	 2	 7500	 4500	 7500	 7500	 TrialList	 1	 3	 1	 2783	 4	 4	 0	 2738	 3	 2	 0	 78	 3	 2
232	20120424	AUS_CMFT	4	 LearnLA040	 ._LearnFA040	 ._LearnRA040	 LearnLA040_T2	 ._LearnFA040_T2	 LearnRA040_T1	 3	 3	 2	 7500	 4500	 1500	 7500	 TrialList	 1	 4	 1	 2138	 3	 3	 0	 2647	 4	 3	 0	 3611	 3	 2
232	20120424	AUS_CMFT	5	 LearnLA049	 ._LearnFA049	 LearnRA049	 ._LearnLA049_T3	 ._LearnFA049_T1	 ._LearnRA049_T3	 4	 2	 4	 1500	 7500	 6000	 1500	 TrialList	 1	 5	 1	 2079	 4	 4	 0	 2783	 4	 2	 0	 2060	 3	 4
232	20120424	AUS_CMFT	6	 LearnLA076	 LearnFA076	 LearnRA076	 LearnLA076_T1	 LearnFA076_T3	 LearnRA076_T1	 2	 4	 2	 7500	 7500	 1500	 4500	 TrialList	 1	 6	 0	 1393	 4	 2	 1	 2833	 4	 4	 1	 3199	 2	 2
233	20120508	AUS_CMFT	1	 LearnLA004	 ._LearnFA004	 LearnRA004	 ._LearnLA004_T1	 ._LearnFA004_T3	 LearnRA004_T3	 2	 4	 4	 15000	 7500	 3000	 1500	 TrialList	 1	 1	 1	 2324	 2	 2	 1	 2496	 4	 4	 1	 2524	 4	 4
233	20120508	AUS_CMFT	2	 LearnLA011	 ._LearnFA011	 ._LearnRA011	 ._LearnLA011_T2	 ._LearnFA011_T3	 LearnRA011_T3	 3	 4	 4	 1500	 7500	 6000	 4500	 TrialList	 1	 2	 1	 1415	 3	 3	 1	 1702	 4	 4	 1	 1892	 4	 4
233	20120508	AUS_CMFT	3	 LearnLA022	 ._LearnFA022	 LearnRA022	 LearnLA022_T3	 ._LearnFA022_T1	 ._LearnRA022_T1	 4	 2	 2	 7500	 4500	 7500	 7500	 TrialList	 1	 3	 1	 2662	 4	 4	 1	 2232	 2	 2	 1	 1883	 2	 2
233	20120508	AUS_CMFT	4	 LearnLA040	 ._LearnFA040	 ._LearnRA040	 LearnLA040_T2	 ._LearnFA040_T2	 LearnRA040_T1	 3	 3	 2	 7500	 4500	 1500	 7500	 TrialList	 1	 4	 1	 2275	 3	 3	 0	 0	 	 3	 1	 1426	 2	 2
233	20120508	AUS_CMFT	5	 LearnLA049	 ._LearnFA049	 LearnRA049	 ._LearnLA049_T3	 ._LearnFA049_T1	 ._LearnRA049_T3	 4	 2	 4	 1500	 7500	 6000	 1500	 TrialList	 1	 5	 1	 2043	 4	 4	 1	 2415	 2	 2	 1	 2379	 4	 4
233	20120508	AUS_CMFT	6	 LearnLA076	 LearnFA076	 LearnRA076	 LearnLA076_T1	 LearnFA076_T3	 LearnRA076_T1	 2	 4	 2	 7500	 7500	 1500	 4500	 TrialList	 1	 6	 0	 2557	 3	 2	 1	 3034	 4	 4	 0	 0	 	 
234	20120508	AUS_CMFT	1	 LearnLA004	 ._LearnFA004	 LearnRA004	 ._LearnLA004_T1	 ._LearnFA004_T3	 LearnRA004_T3	 2	 4	 4	 15000	 7500	 3000	 1500	 TrialList	 1	 1	 1	 2378	 2	 2	 1	 2870	 4	 4	 1	 2362	 4	 4
234	20120508	AUS_CMFT	2	 LearnLA011	 ._LearnFA011	 ._LearnRA011	 ._LearnLA011_T2	 ._LearnFA011_T3	 LearnRA011_T3	 3	 4	 4	 1500	 7500	 6000	 4500	 TrialList	 1	 2	 1	 1973	 3	 3	 0	 2744	 2	 4	 1	 2140	 4	 4
234	20120508	AUS_CMFT	3	 LearnLA022	 ._LearnFA022	 LearnRA022	 LearnLA022_T3	 ._LearnFA022_T1	 ._LearnRA022_T1	 4	 2	 2	 7500	 4500	 7500	 7500	 TrialList	 1	 3	 0	 2146	 2	 4	 0	 1138	 3	 2	 0	 2487	 4	 2
234	20120508	AUS_CMFT	4	 LearnLA040	 ._LearnFA040	 ._LearnRA040	 LearnLA040_T2	 ._LearnFA040_T2	 LearnRA040_T1	 3	 3	 2	 7500	 4500	 1500	 7500	 TrialList	 1	 4	 1	 1545	 3	 3	 1	 1529	 3	 3	 0	 2064	 3	 2
234	20120508	AUS_CMFT	5	 LearnLA049	 ._LearnFA049	 LearnRA049	 ._LearnLA049_T3	 ._LearnFA049_T1	 ._LearnRA049_T3	 4	 2	 4	 1500	 7500	 6000	 1500	 TrialList	 1	 5	 1	 1944	 4	 4	 1	 2333	 2	 2	 0	 1229	 3	 4
234	20120508	AUS_CMFT	6	 LearnLA076	 LearnFA076	 LearnRA076	 LearnLA076_T1	 LearnFA076_T3	 LearnRA076_T1	 2	 4	 2	 7500	 7500	 1500	 4500	 TrialList	 1	 6	 1	 1585	 2	 2	 1	 2412	 4	 4	 1	 1109	 2	 2
235	20120609	AUS_CMFT	1	 LearnLA004	 ._LearnFA004	 LearnRA004	 ._LearnLA004_T1	 ._LearnFA004_T3	 LearnRA004_T3	 2	 4	 4	 15000	 7500	 3000	 1500	 TrialList	 1	 1	 1	 1262	 2	 2	 1	 1962	 4	 4	 1	 1854	 4	 4
235	20120609	AUS_CMFT	2	 LearnLA011	 ._LearnFA011	 ._LearnRA011	 ._LearnLA011_T2	 ._LearnFA011_T3	 LearnRA011_T3	 3	 4	 4	 1500	 7500	 6000	 4500	 TrialList	 1	 2	 1	 2061	 3	 3	 1	 2020	 4	 4	 0	 3657	 2	 4
235	20120609	AUS_CMFT	3	 LearnLA022	 ._LearnFA022	 LearnRA022	 LearnLA022_T3	 ._LearnFA022_T1	 ._LearnRA022_T1	 4	 2	 2	 7500	 4500	 7500	 7500	 TrialList	 1	 3	 1	 1597	 4	 4	 1	 2582	 2	 2	 1	 3304	 2	 2
235	20120609	AUS_CMFT	4	 LearnLA040	 ._LearnFA040	 ._LearnRA040	 LearnLA040_T2	 ._LearnFA040_T2	 LearnRA040_T1	 3	 3	 2	 7500	 4500	 1500	 7500	 TrialList	 1	 4	 0	 0	 	 3	 1	 1721	 3	 3	 1	 2479	 2	 2
235	20120609	AUS_CMFT	5	 LearnLA049	 ._LearnFA049	 LearnRA049	 ._LearnLA049_T3	 ._LearnFA049_T1	 ._LearnRA049_T3	 4	 2	 4	 1500	 7500	 6000	 1500	 TrialList	 1	 5	 1	 1940	 4	 4	 1	 1520	 2	 2	 1	 2081	 4	 4
235	20120609	AUS_CMFT	6	 LearnLA076	 LearnFA076	 LearnRA076	 LearnLA076_T1	 LearnFA076_T3	 LearnRA076_T1	 2	 4	 2	 7500	 7500	 1500	 4500	 TrialList	 1	 6	 1	 1832	 2	 2	 0	 2752	 3	 4	 1	 1428	 2	 2
236	20120531	AUS_CMFT	1	 LearnLA004	 ._LearnFA004	 LearnRA004	 ._LearnLA004_T1	 ._LearnFA004_T3	 LearnRA004_T3	 2	 4	 4	 15000	 7500	 3000	 1500	 TrialList	 1	 1	 1	 2130	 2	 2	 1	 1710	 4	 4	 1	 1623	 4	 4
236	20120531	AUS_CMFT	2	 LearnLA011	 ._LearnFA011	 ._LearnRA011	 ._LearnLA011_T2	 ._LearnFA011_T3	 LearnRA011_T3	 3	 4	 4	 1500	 7500	 6000	 4500	 TrialList	 1	 2	 1	 1926	 3	 3	 0	 2400	 3	 4	 1	 2456	 4	 4
236	20120531	AUS_CMFT	3	 LearnLA022	 ._LearnFA022	 LearnRA022	 LearnLA022_T3	 ._LearnFA022_T1	 ._LearnRA022_T1	 4	 2	 2	 7500	 4500	 7500	 7500	 TrialList	 1	 3	 1	 2492	 4	 4	 1	 1528	 2	 2	 1	 2377	 2	 2
236	20120531	AUS_CMFT	4	 LearnLA040	 ._LearnFA040	 ._LearnRA040	 LearnLA040_T2	 ._LearnFA040_T2	 LearnRA040_T1	 3	 3	 2	 7500	 4500	 1500	 7500	 TrialList	 1	 4	 1	 1079	 3	 3	 1	 2529	 3	 3	 1	 3109	 2	 2
236	20120531	AUS_CMFT	5	 LearnLA049	 ._LearnFA049	 LearnRA049	 ._LearnLA049_T3	 ._LearnFA049_T1	 ._LearnRA049_T3	 4	 2	 4	 1500	 7500	 6000	 1500	 TrialList	 1	 5	 1	 1204	 4	 4	 1	 1593	 2	 2	 1	 1796	 4	 4
236	20120531	AUS_CMFT	6	 LearnLA076	 LearnFA076	 LearnRA076	 LearnLA076_T1	 LearnFA076_T3	 LearnRA076_T1	 2	 4	 2	 7500	 7500	 1500	 4500	 TrialList	 1	 6	 1	 1827	 2	 2	 1	 2448	 4	 4	 1	 2099	 2	 2
240	20120607	AUS_CMFT	1	 LearnLA004	 ._LearnFA004	 LearnRA004	 ._LearnLA004_T1	 ._LearnFA004_T3	 LearnRA004_T3	 2	 4	 4	 15000	 7500	 3000	 1500	 TrialList	 1	 1	 1	 1778	 2	 2	 1	 1419	 4	 4	 1	 2165	 4	 4
240	20120607	AUS_CMFT	2	 LearnLA011	 ._LearnFA011	 ._LearnRA011	 ._LearnLA011_T2	 ._LearnFA011_T3	 LearnRA011_T3	 3	 4	 4	 1500	 7500	 6000	 4500	 TrialList	 1	 2	 1	 2787	 3	 3	 0	 2549	 3	 4	 1	 2133	 4	 4
240	20120607	AUS_CMFT	3	 LearnLA022	 ._LearnFA022	 LearnRA022	 LearnLA022_T3	 ._LearnFA022_T1	 ._LearnRA022_T1	 4	 2	 2	 7500	 4500	 7500	 7500	 TrialList	 1	 3	 0	 2349	 2	 4	 0	 2687	 3	 2	 1	 2907	 2	 2
240	20120607	AUS_CMFT	4	 LearnLA040	 ._LearnFA040	 ._LearnRA040	 LearnLA040_T2	 ._LearnFA040_T2	 LearnRA040_T1	 3	 3	 2	 7500	 4500	 1500	 7500	 TrialList	 1	 4	 1	 1909	 3	 3	 1	 2438	 3	 3	 1	 2056	 2	 2
240	20120607	AUS_CMFT	5	 LearnLA049	 ._LearnFA049	 LearnRA049	 ._LearnLA049_T3	 ._LearnFA049_T1	 ._LearnRA049_T3	 4	 2	 4	 1500	 7500	 6000	 1500	 TrialList	 1	 5	 1	 2330	 4	 4	 0	 4313	 3	 2	 1	 2861	 4	 4
240	20120607	AUS_CMFT	6	 LearnLA076	 LearnFA076	 LearnRA076	 LearnLA076_T1	 LearnFA076_T3	 LearnRA076_T1	 2	 4	 2	 7500	 7500	 1500	 4500	 TrialList	 1	 6	 1	 2255	 2	 2	 1	 2162	 4	 4	 1	 2380	 2	 2
241	20120621	AUS_CMFT	1	 LearnLA004	 ._LearnFA004	 LearnRA004	 ._LearnLA004_T1	 ._LearnFA004_T3	 LearnRA004_T3	 2	 4	 4	 15000	 7500	 3000	 1500	 TrialList	 1	 1	 1	 2742	 2	 2	 1	 3665	 4	 4	 1	 2896	 4	 4
241	20120621	AUS_CMFT	2	 LearnLA011	 ._LearnFA011	 ._LearnRA011	 ._LearnLA011_T2	 ._LearnFA011_T3	 LearnRA011_T3	 3	 4	 4	 1500	 7500	 6000	 4500	 TrialList	 1	 2	 1	 1372	 3	 3	 0	 2148	 3	 4	 1	 3863	 4	 4
241	20120621	AUS_CMFT	3	 LearnLA022	 ._LearnFA022	 LearnRA022	 LearnLA022_T3	 ._LearnFA022_T1	 ._LearnRA022_T1	 4	 2	 2	 7500	 4500	 7500	 7500	 TrialList	 1	 3	 0	 0	 	 4	 0	 0	 	 2	 0	 0	 	 
241	20120621	AUS_CMFT	4	 LearnLA040	 ._LearnFA040	 ._LearnRA040	 LearnLA040_T2	 ._LearnFA040_T2	 LearnRA040_T1	 3	 3	 2	 7500	 4500	 1500	 7500	 TrialList	 1	 4	 1	 4088	 3	 3	 1	 4761	 3	 3	 0	 0	 	 
